TIME,HELMET_RAW,BELT_ACC_X,BELT_ACC_Y,BELT_ACC_Z,BELT_ANG_X,BELT_ANG_Y,BELT_ANG_Z,BELT_LUMINOSITY,NECK_ACC_X,NECK_ACC_Y,NECK_ACC_Z,NECK_ANG_X,NECK_ANG_Y,NECK_ANG_Z,NECK_LUMINOSITY,PCKT_ACC_X,PCKT_ACC_Y,PCKT_ACC_Z,PCKT_ANG_X,PCKT_ANG_Y,PCKT_ANG_Z,PCKT_LUMINOSITY,WRST_ACC_X,WRST_ACC_Y,WRST_ACC_Z,WRST_ANG_X,WRST_ANG_Y,WRST_ANG_Z,WRST_LUMINOSITY,IR_1,IR_2,IR_3,IR_4
24-May-2018 12:30:32,1288.66666666667,0.16992,0.01642,-0.20762,15.3,-12.5657142857143,10.0487142857143,217.016333333333,-0.758666666666667,-0.415333333333333,-0.5497,-1.96188888888889,-0.234888888888889,3.02166666666667,45.3702,0.42885,-0.175166666666667,0.47685,16.212,29.03,-24.9596,3.96375,-0.599033333333333,-0.105933333333333,-0.468433333333333,5.1525,-8.6675,-20.141,318.8044,1,1,1,1
24-May-2018 12:30:32,1288.66666666667,0.16992,0.01642,-0.20762,15.3,-12.5657142857143,10.0487142857143,217.016333333333,-0.758666666666667,-0.415333333333333,-0.5497,-1.96188888888889,-0.234888888888889,3.02166666666667,45.3702,0.42885,-0.175166666666667,0.47685,16.212,29.03,-24.9596,3.96375,-0.599033333333333,-0.105933333333333,-0.468433333333333,5.1525,-8.6675,-20.141,318.8044,1,1,1,1
24-May-2018 12:30:32,1288.66666666667,0.16992,0.01642,-0.20762,15.3,-12.5657142857143,10.0487142857143,217.016333333333,-0.758666666666667,-0.415333333333333,-0.5497,-1.96188888888889,-0.234888888888889,3.02166666666667,45.3702,0.42885,-0.175166666666667,0.47685,16.212,29.03,-24.9596,3.96375,-0.599033333333333,-0.105933333333333,-0.468433333333333,5.1525,-8.6675,-20.141,318.8044,1,1,1,1
24-May-2018 12:30:32,1288.66666666667,0.16992,0.01642,-0.20762,15.3,-12.5657142857143,10.0487142857143,217.016333333333,-0.758666666666667,-0.415333333333333,-0.5497,-1.96188888888889,-0.234888888888889,3.02166666666667,45.3702,0.42885,-0.175166666666667,0.47685,16.212,29.03,-24.9596,3.96375,-0.599033333333333,-0.105933333333333,-0.468433333333333,5.1525,-8.6675,-20.141,318.8044,1,1,1,1
24-May-2018 12:30:33,2047,0.33005,0.0515166666666667,-0.0913666666666667,0.8632,-88.487,-6.956,323.2425,-0.76208,-0.40958,-0.55042,1.16811111111111,-1.42033333333333,0.882444444444444,46.251,0.675816666666667,-0.36625,0.71585,-13.92,-20.745,5.69075,4.183,-0.765616666666667,-0.352683333333333,-0.385383333333333,49.7314,-25.9126,-40.84,279.422,1,1,1,1
24-May-2018 12:30:33,2047,0.33005,0.0515166666666667,-0.0913666666666667,0.8632,-88.487,-6.956,323.2425,-0.76208,-0.40958,-0.55042,1.16811111111111,-1.42033333333333,0.882444444444444,46.251,0.675816666666667,-0.36625,0.71585,-13.92,-20.745,5.69075,4.183,-0.765616666666667,-0.352683333333333,-0.385383333333333,49.7314,-25.9126,-40.84,279.422,1,1,1,1
24-May-2018 12:30:33,2047,0.33005,0.0515166666666667,-0.0913666666666667,0.8632,-88.487,-6.956,323.2425,-0.76208,-0.40958,-0.55042,1.16811111111111,-1.42033333333333,0.882444444444444,46.251,0.675816666666667,-0.36625,0.71585,-13.92,-20.745,5.69075,4.183,-0.765616666666667,-0.352683333333333,-0.385383333333333,49.7314,-25.9126,-40.84,279.422,1,1,1,1
24-May-2018 12:30:33,2047,0.33005,0.0515166666666667,-0.0913666666666667,0.8632,-88.487,-6.956,323.2425,-0.76208,-0.40958,-0.55042,1.16811111111111,-1.42033333333333,0.882444444444444,46.251,0.675816666666667,-0.36625,0.71585,-13.92,-20.745,5.69075,4.183,-0.765616666666667,-0.352683333333333,-0.385383333333333,49.7314,-25.9126,-40.84,279.422,1,1,1,1
24-May-2018 12:30:34,2041.4,0.39832,-0.00268,-0.11162,3.59,-182.054,1.8054,357.680333333333,-0.772975,-0.40275,-0.5311,1.3674,-1.3817,2.7561,45.8373333333333,0.973075,-0.537975,0.774725,-28.46,-25.8866666666667,-23.4366666666667,4.07833333333333,-1.08734,-0.0961600000000001,-0.48702,24.3701666666667,5.906,-35.588,323.47025,1,1,1,1
24-May-2018 12:30:34,2041.4,0.39832,-0.00268,-0.11162,3.59,-182.054,1.8054,357.680333333333,-0.772975,-0.40275,-0.5311,1.3674,-1.3817,2.7561,45.8373333333333,0.973075,-0.537975,0.774725,-28.46,-25.8866666666667,-23.4366666666667,4.07833333333333,-1.08734,-0.0961600000000001,-0.48702,24.3701666666667,5.906,-35.588,323.47025,1,1,1,1
24-May-2018 12:30:34,2041.4,0.39832,-0.00268,-0.11162,3.59,-182.054,1.8054,357.680333333333,-0.772975,-0.40275,-0.5311,1.3674,-1.3817,2.7561,45.8373333333333,0.973075,-0.537975,0.774725,-28.46,-25.8866666666667,-23.4366666666667,4.07833333333333,-1.08734,-0.0961600000000001,-0.48702,24.3701666666667,5.906,-35.588,323.47025,1,1,1,1
24-May-2018 12:30:34,2041.4,0.39832,-0.00268,-0.11162,3.59,-182.054,1.8054,357.680333333333,-0.772975,-0.40275,-0.5311,1.3674,-1.3817,2.7561,45.8373333333333,0.973075,-0.537975,0.774725,-28.46,-25.8866666666667,-23.4366666666667,4.07833333333333,-1.08734,-0.0961600000000001,-0.48702,24.3701666666667,5.906,-35.588,323.47025,1,1,1,1
24-May-2018 12:30:35,1674.77777777778,0.6371125,-0.0297875,-0.4609,-4.856,106.58,-5.6347,357.680333333333,-0.803375,-0.379325,-0.5118,2.278,-5.33055555555556,23.5795555555556,45.01,0.938166666666667,-0.374033333333333,0.551433333333333,-40.7316666666667,-12.2743333333333,10.7023333333333,4.22425,-0.6585,-0.03506,-0.23354,13.4158,-31.498,0.1342,414.1285,0,0,1,1
24-May-2018 12:30:35,1674.77777777778,0.6371125,-0.0297875,-0.4609,-4.856,106.58,-5.6347,357.680333333333,-0.803375,-0.379325,-0.5118,2.278,-5.33055555555556,23.5795555555556,45.01,0.938166666666667,-0.374033333333333,0.551433333333333,-40.7316666666667,-12.2743333333333,10.7023333333333,4.22425,-0.6585,-0.03506,-0.23354,13.4158,-31.498,0.1342,414.1285,0,0,1,1
24-May-2018 12:30:35,1674.77777777778,0.6371125,-0.0297875,-0.4609,-4.856,106.58,-5.6347,357.680333333333,-0.803375,-0.379325,-0.5118,2.278,-5.33055555555556,23.5795555555556,45.01,0.938166666666667,-0.374033333333333,0.551433333333333,-40.7316666666667,-12.2743333333333,10.7023333333333,4.22425,-0.6585,-0.03506,-0.23354,13.4158,-31.498,0.1342,414.1285,0,0,1,1
24-May-2018 12:30:35,1674.77777777778,0.6371125,-0.0297875,-0.4609,-4.856,106.58,-5.6347,357.680333333333,-0.803375,-0.379325,-0.5118,2.278,-5.33055555555556,23.5795555555556,45.01,0.938166666666667,-0.374033333333333,0.551433333333333,-40.7316666666667,-12.2743333333333,10.7023333333333,4.22425,-0.6585,-0.03506,-0.23354,13.4158,-31.498,0.1342,414.1285,0,0,1,1
24-May-2018 12:30:36,1182.625,0.725983333333333,0.0494833333333333,0.0794333333333333,10.8316666666667,-82.9266666666667,0.983833333333333,357.680333333333,-0.849733333333333,-0.291366666666667,-0.536466666666667,-11.6854444444444,14.2326666666667,16.16,42.499,0.91385,-0.574375,0.5948,105.3025,39.645,-18.75,4.257,-0.507625,-0.280725,-0.07005,-23.6583333333333,111.606,-40.081,426.009666666667,1,1,1,1
24-May-2018 12:30:36,1182.625,0.725983333333333,0.0494833333333333,0.0794333333333333,10.8316666666667,-82.9266666666667,0.983833333333333,357.680333333333,-0.849733333333333,-0.291366666666667,-0.536466666666667,-11.6854444444444,14.2326666666667,16.16,42.499,0.91385,-0.574375,0.5948,105.3025,39.645,-18.75,4.257,-0.507625,-0.280725,-0.07005,-23.6583333333333,111.606,-40.081,426.009666666667,1,1,1,1
24-May-2018 12:30:36,1182.625,0.725983333333333,0.0494833333333333,0.0794333333333333,10.8316666666667,-82.9266666666667,0.983833333333333,357.680333333333,-0.849733333333333,-0.291366666666667,-0.536466666666667,-11.6854444444444,14.2326666666667,16.16,42.499,0.91385,-0.574375,0.5948,105.3025,39.645,-18.75,4.257,-0.507625,-0.280725,-0.07005,-23.6583333333333,111.606,-40.081,426.009666666667,1,1,1,1
24-May-2018 12:30:36,1182.625,0.725983333333333,0.0494833333333333,0.0794333333333333,10.8316666666667,-82.9266666666667,0.983833333333333,357.680333333333,-0.849733333333333,-0.291366666666667,-0.536466666666667,-11.6854444444444,14.2326666666667,16.16,42.499,0.91385,-0.574375,0.5948,105.3025,39.645,-18.75,4.257,-0.507625,-0.280725,-0.07005,-23.6583333333333,111.606,-40.081,426.009666666667,1,1,1,1
24-May-2018 12:30:37,912.4,0.2412,-0.0488,-0.32735,1.25666666666667,-75.9383333333333,9.30633333333333,357.680333333333,-0.806,-0.25246,-0.59644,7.72283333333333,25.6366666666667,8.11883333333333,39.988,0.599942857142857,-0.410528571428571,0.3882,72.19,39.02,-20.05,4.1665,-0.31984,-0.14566,-0.0282,13.1625714285714,-39.0577142857143,10.2002857142857,439.2715,1,1,1,1
24-May-2018 12:30:37,912.4,0.2412,-0.0488,-0.32735,1.25666666666667,-75.9383333333333,9.30633333333333,357.680333333333,-0.806,-0.25246,-0.59644,7.72283333333333,25.6366666666667,8.11883333333333,39.988,0.599942857142857,-0.410528571428571,0.3882,72.19,39.02,-20.05,4.1665,-0.31984,-0.14566,-0.0282,13.1625714285714,-39.0577142857143,10.2002857142857,439.2715,1,1,1,1
24-May-2018 12:30:37,912.4,0.2412,-0.0488,-0.32735,1.25666666666667,-75.9383333333333,9.30633333333333,357.680333333333,-0.806,-0.25246,-0.59644,7.72283333333333,25.6366666666667,8.11883333333333,39.988,0.599942857142857,-0.410528571428571,0.3882,72.19,39.02,-20.05,4.1665,-0.31984,-0.14566,-0.0282,13.1625714285714,-39.0577142857143,10.2002857142857,439.2715,1,1,1,1
24-May-2018 12:30:37,912.4,0.2412,-0.0488,-0.32735,1.25666666666667,-75.9383333333333,9.30633333333333,357.680333333333,-0.806,-0.25246,-0.59644,7.72283333333333,25.6366666666667,8.11883333333333,39.988,0.599942857142857,-0.410528571428571,0.3882,72.19,39.02,-20.05,4.1665,-0.31984,-0.14566,-0.0282,13.1625714285714,-39.0577142857143,10.2002857142857,439.2715,1,1,1,1
24-May-2018 12:30:38,655,0.751283333333333,-0.0980833333333333,-0.103083333333333,7.73166666666667,93.705,-16.557,317.7515,-0.74594,-0.27816,-0.65564,15.37,16.475,2.067125,48.0105,0.7237,-0.50254,0.49492,-60.4175,18.7575,-8.9975,4.07,-0.974833333333333,-0.414366666666667,-0.520666666666667,-81.96325,148.8415,6.73775000000001,374.549666666667,1,1,1,1
24-May-2018 12:30:38,655,0.751283333333333,-0.0980833333333333,-0.103083333333333,7.73166666666667,93.705,-16.557,317.7515,-0.74594,-0.27816,-0.65564,15.37,16.475,2.067125,48.0105,0.7237,-0.50254,0.49492,-60.4175,18.7575,-8.9975,4.07,-0.974833333333333,-0.414366666666667,-0.520666666666667,-81.96325,148.8415,6.73775000000001,374.549666666667,1,1,1,1
24-May-2018 12:30:38,655,0.751283333333333,-0.0980833333333333,-0.103083333333333,7.73166666666667,93.705,-16.557,317.7515,-0.74594,-0.27816,-0.65564,15.37,16.475,2.067125,48.0105,0.7237,-0.50254,0.49492,-60.4175,18.7575,-8.9975,4.07,-0.974833333333333,-0.414366666666667,-0.520666666666667,-81.96325,148.8415,6.73775000000001,374.549666666667,1,1,1,1
24-May-2018 12:30:38,655,0.751283333333333,-0.0980833333333333,-0.103083333333333,7.73166666666667,93.705,-16.557,317.7515,-0.74594,-0.27816,-0.65564,15.37,16.475,2.067125,48.0105,0.7237,-0.50254,0.49492,-60.4175,18.7575,-8.9975,4.07,-0.974833333333333,-0.414366666666667,-0.520666666666667,-81.96325,148.8415,6.73775000000001,374.549666666667,1,1,1,1
24-May-2018 12:30:39,476.2,0.799025,-0.030075,-0.33535,-2.705,-31.67,6.9225,349.2176,-0.70452,-0.30374,-0.68704,15.9794444444444,23.1577777777778,-0.209555555555556,56.033,0.6947,-0.358125,0.55475,-15.0375,-29.15,7.4375,3.9995,-0.235528571428571,-0.2265,-0.00245714285714286,41.17425,-71.93375,-1.738,377.236,1,1,1,1
24-May-2018 12:30:39,476.2,0.799025,-0.030075,-0.33535,-2.705,-31.67,6.9225,349.2176,-0.70452,-0.30374,-0.68704,15.9794444444444,23.1577777777778,-0.209555555555556,56.033,0.6947,-0.358125,0.55475,-15.0375,-29.15,7.4375,3.9995,-0.235528571428571,-0.2265,-0.00245714285714286,41.17425,-71.93375,-1.738,377.236,1,1,1,1
24-May-2018 12:30:39,476.2,0.799025,-0.030075,-0.33535,-2.705,-31.67,6.9225,349.2176,-0.70452,-0.30374,-0.68704,15.9794444444444,23.1577777777778,-0.209555555555556,56.033,0.6947,-0.358125,0.55475,-15.0375,-29.15,7.4375,3.9995,-0.235528571428571,-0.2265,-0.00245714285714286,41.17425,-71.93375,-1.738,377.236,1,1,1,1
24-May-2018 12:30:39,476.2,0.799025,-0.030075,-0.33535,-2.705,-31.67,6.9225,349.2176,-0.70452,-0.30374,-0.68704,15.9794444444444,23.1577777777778,-0.209555555555556,56.033,0.6947,-0.358125,0.55475,-15.0375,-29.15,7.4375,3.9995,-0.235528571428571,-0.2265,-0.00245714285714286,41.17425,-71.93375,-1.738,377.236,1,1,1,1
24-May-2018 12:30:40,354.625,0.42636,-0.01032,-0.15162,-4.80983333333333,29.0333333333333,7.91666666666667,328.864,-0.6594,-0.32722,-0.72186,3.72088888888889,19.7922222222222,6.77444444444444,56.033,0.7341,-0.324466666666667,0.551716666666667,-2.9925,-15.84125,0.67375,3.9995,-0.7184,-0.425842857142857,-0.166585714285714,-4.2076,-9.744,20.8778,348.851666666667,1,1,1,1
24-May-2018 12:30:40,354.625,0.42636,-0.01032,-0.15162,-4.80983333333333,29.0333333333333,7.91666666666667,328.864,-0.6594,-0.32722,-0.72186,3.72088888888889,19.7922222222222,6.77444444444444,56.033,0.7341,-0.324466666666667,0.551716666666667,-2.9925,-15.84125,0.67375,3.9995,-0.7184,-0.425842857142857,-0.166585714285714,-4.2076,-9.744,20.8778,348.851666666667,1,1,1,1
24-May-2018 12:30:40,354.625,0.42636,-0.01032,-0.15162,-4.80983333333333,29.0333333333333,7.91666666666667,328.864,-0.6594,-0.32722,-0.72186,3.72088888888889,19.7922222222222,6.77444444444444,56.033,0.7341,-0.324466666666667,0.551716666666667,-2.9925,-15.84125,0.67375,3.9995,-0.7184,-0.425842857142857,-0.166585714285714,-4.2076,-9.744,20.8778,348.851666666667,1,1,1,1
24-May-2018 12:30:40,354.625,0.42636,-0.01032,-0.15162,-4.80983333333333,29.0333333333333,7.91666666666667,328.864,-0.6594,-0.32722,-0.72186,3.72088888888889,19.7922222222222,6.77444444444444,56.033,0.7341,-0.324466666666667,0.551716666666667,-2.9925,-15.84125,0.67375,0,-0.7184,-0.425842857142857,-0.166585714285714,-4.2076,-9.744,20.8778,348.851666666667,1,1,1,1
24-May-2018 12:30:41,-298.25,0.860775,0.0794125,-0.095375,-1.5984,75.93,-31.98,379.64,-0.64575,-0.322675,-0.737125,0.557777777777778,-10.0784444444444,-5.60366666666667,56.036,1.15561666666667,-0.518133333333333,0.73535,91.05,-4.2685,-23.0575,4.0825,-0.489971428571429,-0.512114285714286,-0.0560142857142857,15.0138,108.122,-34.5592,453.492,1,1,1,1
24-May-2018 12:30:41,-298.25,0.860775,0.0794125,-0.095375,-1.5984,75.93,-31.98,379.64,-0.64575,-0.322675,-0.737125,0.557777777777778,-10.0784444444444,-5.60366666666667,56.036,1.15561666666667,-0.518133333333333,0.73535,91.05,-4.2685,-23.0575,4.0825,-0.489971428571429,-0.512114285714286,-0.0560142857142857,15.0138,108.122,-34.5592,453.492,1,1,1,1
24-May-2018 12:30:41,-298.25,0.860775,0.0794125,-0.095375,-1.5984,75.93,-31.98,379.64,-0.64575,-0.322675,-0.737125,0.557777777777778,-10.0784444444444,-5.60366666666667,56.036,1.15561666666667,-0.518133333333333,0.73535,91.05,-4.2685,-23.0575,4.0825,-0.489971428571429,-0.512114285714286,-0.0560142857142857,15.0138,108.122,-34.5592,453.492,1,1,1,1
24-May-2018 12:30:41,-298.25,0.860775,0.0794125,-0.095375,-1.5984,75.93,-31.98,379.64,-0.64575,-0.322675,-0.737125,0.557777777777778,-10.0784444444444,-5.60366666666667,56.036,1.15561666666667,-0.518133333333333,0.73535,91.05,-4.2685,-23.0575,4.0825,-0.489971428571429,-0.512114285714286,-0.0560142857142857,15.0138,108.122,-34.5592,453.492,1,1,1,1
24-May-2018 12:30:42,-1021.71428571429,-0.2271,-0.033925,-0.53025,-13.7016666666667,87.7866666666667,9.47983333333333,290.318,-0.651575,-0.3347,-0.73355,-9.1545,-4.317625,-3.22075,56.036,0.756725,-0.266325,0.681775,124.766666666667,-9.165,-40.1733333333333,4.14533333333333,-0.78405,-0.33095,-0.316775,22.3101428571429,0.219285714285713,6.89914285714286,432.1935,1,1,1,1
24-May-2018 12:30:42,-1021.71428571429,-0.2271,-0.033925,-0.53025,-13.7016666666667,87.7866666666667,9.47983333333333,290.318,-0.651575,-0.3347,-0.73355,-9.1545,-4.317625,-3.22075,56.036,0.756725,-0.266325,0.681775,124.766666666667,-9.165,-40.1733333333333,4.14533333333333,-0.78405,-0.33095,-0.316775,22.3101428571429,0.219285714285713,6.89914285714286,432.1935,1,1,1,1
24-May-2018 12:30:42,-1021.71428571429,-0.2271,-0.033925,-0.53025,-13.7016666666667,87.7866666666667,9.47983333333333,290.318,-0.651575,-0.3347,-0.73355,-9.1545,-4.317625,-3.22075,56.036,0.756725,-0.266325,0.681775,124.766666666667,-9.165,-40.1733333333333,4.14533333333333,-0.78405,-0.33095,-0.316775,22.3101428571429,0.219285714285713,6.89914285714286,432.1935,1,1,1,1
24-May-2018 12:30:42,-1021.71428571429,-0.2271,-0.033925,-0.53025,-13.7016666666667,87.7866666666667,9.47983333333333,290.318,-0.651575,-0.3347,-0.73355,-9.1545,-4.317625,-3.22075,56.036,0.756725,-0.266325,0.681775,124.766666666667,-9.165,-40.1733333333333,4.14533333333333,-0.78405,-0.33095,-0.316775,22.3101428571429,0.219285714285713,6.89914285714286,432.1935,1,1,1,1
24-May-2018 12:30:43,-2048,1.26798,-0.01294,0.16652,0.00750000000000088,93.6833333333333,5.23666666666667,271.317,-0.670475,-0.317525,-0.7345,-15.1571428571429,-10.4628571428571,-5.57857142857143,56.036,1.049925,-0.714225,0.633725,-18.764,0.0339999999999975,-10.012,3.946,-0.765233333333333,-0.480333333333333,-0.2265,38.4755,-137.922833333333,42.3983333333333,411.534,1,1,1,1
24-May-2018 12:30:43,-2048,1.26798,-0.01294,0.16652,0.00750000000000088,93.6833333333333,5.23666666666667,271.317,-0.670475,-0.317525,-0.7345,-15.1571428571429,-10.4628571428571,-5.57857142857143,56.036,1.049925,-0.714225,0.633725,-18.764,0.0339999999999975,-10.012,3.946,-0.765233333333333,-0.480333333333333,-0.2265,38.4755,-137.922833333333,42.3983333333333,411.534,1,1,1,1
24-May-2018 12:30:43,-2048,1.26798,-0.01294,0.16652,0.00750000000000088,93.6833333333333,5.23666666666667,271.317,-0.670475,-0.317525,-0.7345,-15.1571428571429,-10.4628571428571,-5.57857142857143,56.036,1.049925,-0.714225,0.633725,-18.764,0.0339999999999975,-10.012,3.946,-0.765233333333333,-0.480333333333333,-0.2265,38.4755,-137.922833333333,42.3983333333333,411.534,1,1,1,1
24-May-2018 12:30:43,-2048,1.26798,-0.01294,0.16652,0.00750000000000088,93.6833333333333,5.23666666666667,271.317,-0.670475,-0.317525,-0.7345,-15.1571428571429,-10.4628571428571,-5.57857142857143,56.036,1.049925,-0.714225,0.633725,-18.764,0.0339999999999975,-10.012,3.946,-0.765233333333333,-0.480333333333333,-0.2265,38.4755,-137.922833333333,42.3983333333333,411.534,1,1,1,1
24-May-2018 12:30:44,-2048,0.5976875,-0.0541875,-0.0319875,25.0075,-98.155,6.033,327.450333333333,-0.69515,-0.260225,-0.75265,-44.225,0.3685,13.319375,52.728,0.678075,-0.410025,0.506675,-11.9933333333333,7.40666666666667,3.115,4.005,-0.41856,-0.32992,-0.20312,-25.5276666666667,38.557,41.423,319.347333333333,1,1,1,1
24-May-2018 12:30:44,-2048,0.5976875,-0.0541875,-0.0319875,25.0075,-98.155,6.033,327.450333333333,-0.69515,-0.260225,-0.75265,-44.225,0.3685,13.319375,52.728,0.678075,-0.410025,0.506675,-11.9933333333333,7.40666666666667,3.115,4.005,-0.41856,-0.32992,-0.20312,-25.5276666666667,38.557,41.423,319.347333333333,1,1,1,1
24-May-2018 12:30:44,-2048,0.5976875,-0.0541875,-0.0319875,25.0075,-98.155,6.033,327.450333333333,-0.69515,-0.260225,-0.75265,-44.225,0.3685,13.319375,52.728,0.678075,-0.410025,0.506675,-11.9933333333333,7.40666666666667,3.115,4.005,-0.41856,-0.32992,-0.20312,-25.5276666666667,38.557,41.423,319.347333333333,1,1,1,1
24-May-2018 12:30:44,-2048,0.5976875,-0.0541875,-0.0319875,25.0075,-98.155,6.033,327.450333333333,-0.69515,-0.260225,-0.75265,-44.225,0.3685,13.319375,52.728,0.678075,-0.410025,0.506675,-11.9933333333333,7.40666666666667,3.115,4.005,-0.41856,-0.32992,-0.20312,-25.5276666666667,38.557,41.423,319.347333333333,1,1,1,1
24-May-2018 12:30:45,-1987.8,0.386488888888889,0.0194777777777778,-0.160955555555556,7.672,-90.105,1.495,327.450333333333,-0.65614,-0.15658,-0.79822,-40.9,22.2651111111111,-6.32777777777778,52.728,0.68246,-0.2552,0.44628,-34.804,-20.16,11.85,3.851,-1.34155,-0.79125,-0.4162,46.7683333333333,-69.6293333333333,-21.8266666666667,278.114666666667,1,1,1,1
24-May-2018 12:30:45,-1987.8,0.386488888888889,0.0194777777777778,-0.160955555555556,7.672,-90.105,1.495,327.450333333333,-0.65614,-0.15658,-0.79822,-40.9,22.2651111111111,-6.32777777777778,52.728,0.68246,-0.2552,0.44628,-34.804,-20.16,11.85,3.851,-1.34155,-0.79125,-0.4162,46.7683333333333,-69.6293333333333,-21.8266666666667,278.114666666667,1,1,1,1
24-May-2018 12:30:45,-1987.8,0.386488888888889,0.0194777777777778,-0.160955555555556,7.672,-90.105,1.495,327.450333333333,-0.65614,-0.15658,-0.79822,-40.9,22.2651111111111,-6.32777777777778,52.728,0.68246,-0.2552,0.44628,-34.804,-20.16,11.85,3.851,-1.34155,-0.79125,-0.4162,46.7683333333333,-69.6293333333333,-21.8266666666667,278.114666666667,1,1,1,1
24-May-2018 12:30:45,-1987.8,0.386488888888889,0.0194777777777778,-0.160955555555556,7.672,-90.105,1.495,327.450333333333,-0.65614,-0.15658,-0.79822,-40.9,22.2651111111111,-6.32777777777778,52.728,0.68246,-0.2552,0.44628,-34.804,-20.16,11.85,3.851,-1.34155,-0.79125,-0.4162,46.7683333333333,-69.6293333333333,-21.8266666666667,278.114666666667,1,1,1,1
24-May-2018 12:30:46,-1530.8,0.42994,-0.11912,-0.12938,3.32428571428571,-67.1845714285714,6.50428571428571,327.450333333333,-0.618975,-0.100875,-0.82955,-16.8,15.2342222222222,-14.66,65.02425,1.28284,-0.60398,0.90128,74.655,25.955,-25.3075,4.17375,-0.94495,-0.578716666666667,-0.39565,-17.1678571428571,-61.9494285714286,27.4302857142857,365.654,1,1,1,1
24-May-2018 12:30:46,-1530.8,0.42994,-0.11912,-0.12938,3.32428571428571,-67.1845714285714,6.50428571428571,327.450333333333,-0.618975,-0.100875,-0.82955,-16.8,15.2342222222222,-14.66,65.02425,1.28284,-0.60398,0.90128,74.655,25.955,-25.3075,4.17375,-0.94495,-0.578716666666667,-0.39565,-17.1678571428571,-61.9494285714286,27.4302857142857,365.654,1,1,1,1
24-May-2018 12:30:46,-1530.8,0.42994,-0.11912,-0.12938,3.32428571428571,-67.1845714285714,6.50428571428571,327.450333333333,-0.618975,-0.100875,-0.82955,-16.8,15.2342222222222,-14.66,65.02425,1.28284,-0.60398,0.90128,74.655,25.955,-25.3075,4.17375,-0.94495,-0.578716666666667,-0.39565,-17.1678571428571,-61.9494285714286,27.4302857142857,365.654,1,1,1,1
24-May-2018 12:30:46,-1530.8,0.42994,-0.11912,-0.12938,3.32428571428571,-67.1845714285714,6.50428571428571,327.450333333333,-0.618975,-0.100875,-0.82955,-16.8,15.2342222222222,-14.66,65.02425,1.28284,-0.60398,0.90128,74.655,25.955,-25.3075,4.17375,-0.94495,-0.578716666666667,-0.39565,-17.1678571428571,-61.9494285714286,27.4302857142857,365.654,1,1,1,1
24-May-2018 12:30:47,-1120.5,0.6011,0.0236714285714286,-0.0310285714285714,-8.80528571428571,73.2142857142857,-6.09628571428571,327.450333333333,-0.55905,-0.094125,-0.870025,2.49222222222222,2.37844444444444,-7.91888888888889,101.913,0.606275,-0.220225,0.301325,5.68166666666667,-7.005,-1.61833333333333,4.298,-0.5114,-0.18865,-0.488925,26.786,-20.8607142857143,-30.6434285714286,504.449333333333,0,0,1,1
24-May-2018 12:30:47,-1120.5,0.6011,0.0236714285714286,-0.0310285714285714,-8.80528571428571,73.2142857142857,-6.09628571428571,327.450333333333,-0.55905,-0.094125,-0.870025,2.49222222222222,2.37844444444444,-7.91888888888889,101.913,0.606275,-0.220225,0.301325,5.68166666666667,-7.005,-1.61833333333333,4.298,-0.5114,-0.18865,-0.488925,26.786,-20.8607142857143,-30.6434285714286,504.449333333333,0,0,1,1
24-May-2018 12:30:47,-1120.5,0.6011,0.0236714285714286,-0.0310285714285714,-8.80528571428571,73.2142857142857,-6.09628571428571,327.450333333333,-0.55905,-0.094125,-0.870025,2.49222222222222,2.37844444444444,-7.91888888888889,101.913,0.606275,-0.220225,0.301325,5.68166666666667,-7.005,-1.61833333333333,4.298,-0.5114,-0.18865,-0.488925,26.786,-20.8607142857143,-30.6434285714286,504.449333333333,0,0,1,1
24-May-2018 12:30:47,-1120.5,0.6011,0.0236714285714286,-0.0310285714285714,-8.80528571428571,73.2142857142857,-6.09628571428571,327.450333333333,-0.55905,-0.094125,-0.870025,2.49222222222222,2.37844444444444,-7.91888888888889,101.913,0.606275,-0.220225,0.301325,5.68166666666667,-7.005,-1.61833333333333,4.298,-0.5114,-0.18865,-0.488925,26.786,-20.8607142857143,-30.6434285714286,504.449333333333,0,0,1,1
24-May-2018 12:30:48,-837.888888888889,0.663433333333333,-0.0745166666666667,0.0479,5.93871428571429,-184.482857142857,9.79985714285714,142.349,-0.54902,-0.16156,-0.87278,-2.9845,-2.631125,-11.0535,101.913,1.0292,-0.3498,0.670925,20.6908333333333,-17.4133333333333,3.99716666666667,4.3285,-0.780275,-0.255575,-0.364,75.269,-19.8028,9.8904,549.899,1,1,1,1
24-May-2018 12:30:48,-837.888888888889,0.663433333333333,-0.0745166666666667,0.0479,5.93871428571429,-184.482857142857,9.79985714285714,142.349,-0.54902,-0.16156,-0.87278,-2.9845,-2.631125,-11.0535,101.913,1.0292,-0.3498,0.670925,20.6908333333333,-17.4133333333333,3.99716666666667,4.3285,-0.780275,-0.255575,-0.364,75.269,-19.8028,9.8904,549.899,1,1,1,1
24-May-2018 12:30:48,-837.888888888889,0.663433333333333,-0.0745166666666667,0.0479,5.93871428571429,-184.482857142857,9.79985714285714,142.349,-0.54902,-0.16156,-0.87278,-2.9845,-2.631125,-11.0535,101.913,1.0292,-0.3498,0.670925,20.6908333333333,-17.4133333333333,3.99716666666667,4.3285,-0.780275,-0.255575,-0.364,75.269,-19.8028,9.8904,549.899,1,1,1,1
24-May-2018 12:30:48,-837.888888888889,0.663433333333333,-0.0745166666666667,0.0479,5.93871428571429,-184.482857142857,9.79985714285714,142.349,-0.54902,-0.16156,-0.87278,-2.9845,-2.631125,-11.0535,101.913,1.0292,-0.3498,0.670925,20.6908333333333,-17.4133333333333,3.99716666666667,4.3285,-0.780275,-0.255575,-0.364,75.269,-19.8028,9.8904,549.899,1,1,1,1
24-May-2018 12:30:49,-497.555555555556,0.72174,-0.12606,-0.09716,5.2726,64.539,-7.672,331.416666666667,-0.614,-0.0773,-0.84895,-38.99,-14.449,-5.9188,102.98575,0.822957142857143,-0.585857142857143,0.438528571428571,4.6115,-12.7525,-8.66775,4.10433333333333,-0.68605,-0.322525,-0.092225,40.47375,-35.762,-42.16375,476.84,1,1,1,1
24-May-2018 12:30:49,-497.555555555556,0.72174,-0.12606,-0.09716,5.2726,64.539,-7.672,331.416666666667,-0.614,-0.0773,-0.84895,-38.99,-14.449,-5.9188,102.98575,0.822957142857143,-0.585857142857143,0.438528571428571,4.6115,-12.7525,-8.66775,4.10433333333333,-0.68605,-0.322525,-0.092225,40.47375,-35.762,-42.16375,476.84,1,1,1,1
24-May-2018 12:30:49,-497.555555555556,0.72174,-0.12606,-0.09716,5.2726,64.539,-7.672,331.416666666667,-0.614,-0.0773,-0.84895,-38.99,-14.449,-5.9188,102.98575,0.822957142857143,-0.585857142857143,0.438528571428571,4.6115,-12.7525,-8.66775,4.10433333333333,-0.68605,-0.322525,-0.092225,40.47375,-35.762,-42.16375,476.84,1,1,1,1
24-May-2018 12:30:49,-497.555555555556,0.72174,-0.12606,-0.09716,5.2726,64.539,-7.672,331.416666666667,-0.614,-0.0773,-0.84895,-38.99,-14.449,-5.9188,102.98575,0.822957142857143,-0.585857142857143,0.438528571428571,4.6115,-12.7525,-8.66775,4.10433333333333,-0.68605,-0.322525,-0.092225,40.47375,-35.762,-42.16375,476.84,1,1,1,1
24-May-2018 12:30:50,2047,0.96306,-0.05092,0.05526,9.38933333333333,6.292,0.427833333333333,283.366333333333,-0.583875,-0.020775,-0.876675,-14.542125,16.94875,12.09325,106.204,0.749025,-0.6237,0.089575,-3.21742857142857,-4.33385714285714,1.986,3.81575,-0.866033333333333,-0.505633333333333,-0.134283333333333,-27.2316,42.9268,-126.2664,355.5175,1,1,1,1
24-May-2018 12:30:50,2047,0.96306,-0.05092,0.05526,9.38933333333333,6.292,0.427833333333333,283.366333333333,-0.583875,-0.020775,-0.876675,-14.542125,16.94875,12.09325,106.204,0.749025,-0.6237,0.089575,-3.21742857142857,-4.33385714285714,1.986,3.81575,-0.866033333333333,-0.505633333333333,-0.134283333333333,-27.2316,42.9268,-126.2664,355.5175,1,1,1,1
24-May-2018 12:30:50,2047,0.96306,-0.05092,0.05526,9.38933333333333,6.292,0.427833333333333,283.366333333333,-0.583875,-0.020775,-0.876675,-14.542125,16.94875,12.09325,106.204,0.749025,-0.6237,0.089575,-3.21742857142857,-4.33385714285714,1.986,3.81575,-0.866033333333333,-0.505633333333333,-0.134283333333333,-27.2316,42.9268,-126.2664,355.5175,1,1,1,1
24-May-2018 12:30:50,2047,0.96306,-0.05092,0.05526,9.38933333333333,6.292,0.427833333333333,283.366333333333,-0.583875,-0.020775,-0.876675,-14.542125,16.94875,12.09325,106.204,0.749025,-0.6237,0.089575,-3.21742857142857,-4.33385714285714,1.986,3.81575,-0.866033333333333,-0.505633333333333,-0.134283333333333,-27.2316,42.9268,-126.2664,355.5175,1,1,1,1
24-May-2018 12:30:51,2047,0.95555,-0.03345,0.1659,-0.24,20.12,-1.64,275.29,-0.53255,0.06125,-0.9178,-33.6333333333333,-4.57333333333333,8.857,106.204,0.72805,-0.65125,0.03485,-6.46,0.793,1.463,3.845,0.4087,-0.1727,0.4745,119.085,93.415,-114.63,302.89,1,1,1,1
24-May-2018 12:30:51,2047,0.95555,-0.03345,0.1659,-0.24,20.12,-1.64,275.29,-0.53255,0.06125,-0.9178,-33.6333333333333,-4.57333333333333,8.857,106.204,0.72805,-0.65125,0.03485,-6.46,0.793,1.463,3.845,0.4087,-0.1727,0.4745,119.085,93.415,-114.63,302.89,1,1,1,1
24-May-2018 12:30:51,2047,0.95555,-0.03345,0.1659,-0.24,20.12,-1.64,275.29,-0.53255,0.06125,-0.9178,-33.6333333333333,-4.57333333333333,8.857,106.204,0.72805,-0.65125,0.03485,-6.46,0.793,1.463,3.845,0.4087,-0.1727,0.4745,119.085,93.415,-114.63,302.89,1,1,1,1
24-May-2018 12:30:51,2047,0.95555,-0.03345,0.1659,-0.24,20.12,-1.64,275.29,-0.53255,0.06125,-0.9178,-33.6333333333333,-4.57333333333333,8.857,0,0.72805,-0.65125,0.03485,-6.46,0.793,1.463,3.845,0.4087,-0.1727,0.4745,119.085,93.415,-114.63,302.89,1,1,1,1
24-May-2018 12:30:52,-1281.625,0.941125,-0.039625,0.241425,21.4115,-1.66216666666667,4.64483333333333,334.973,-0.525266666666667,0.0667333333333333,-0.8728,9.13642857142857,-33.3475714285714,-3.60428571428571,122.379,0.70695,-0.684025,0.0274,8.125,-15.5,2.593,3.866,0.64045,-0.599966666666667,0.432816666666667,15.32025,-29.52675,64.558,645.46,0,0,1,1
24-May-2018 12:30:52,-1281.625,0.941125,-0.039625,0.241425,21.4115,-1.66216666666667,4.64483333333333,334.973,-0.525266666666667,0.0667333333333333,-0.8728,9.13642857142857,-33.3475714285714,-3.60428571428571,122.379,0.70695,-0.684025,0.0274,8.125,-15.5,2.593,3.866,0.64045,-0.599966666666667,0.432816666666667,15.32025,-29.52675,64.558,645.46,0,0,1,1
24-May-2018 12:30:52,-1281.625,0.941125,-0.039625,0.241425,21.4115,-1.66216666666667,4.64483333333333,334.973,-0.525266666666667,0.0667333333333333,-0.8728,9.13642857142857,-33.3475714285714,-3.60428571428571,122.379,0.70695,-0.684025,0.0274,8.125,-15.5,2.593,3.866,0.64045,-0.599966666666667,0.432816666666667,15.32025,-29.52675,64.558,645.46,0,0,1,1
24-May-2018 12:30:52,-1281.625,0.941125,-0.039625,0.241425,21.4115,-1.66216666666667,4.64483333333333,334.973,-0.525266666666667,0.0667333333333333,-0.8728,9.13642857142857,-33.3475714285714,-3.60428571428571,122.379,0.70695,-0.684025,0.0274,8.125,-15.5,2.593,3.866,0.64045,-0.599966666666667,0.432816666666667,15.32025,-29.52675,64.558,645.46,0,0,1,1
24-May-2018 12:30:53,2047,0.9497,-0.0875,0.4002,21.4115,-1.66216666666667,4.64483333333333,334.973,-0.621,0.1526,-0.9175,40,-13,4.878,122.379,0.6791,-0.73935,0.01715,37.19,-41.1,-11.5,3.866,0.2148,-0.4068,0.7966,410.122,-34.512,148.963,645.46,1,1,1,1
24-May-2018 12:30:53,2047,0.9497,-0.0875,0.4002,21.4115,-1.66216666666667,4.64483333333333,334.973,-0.621,0.1526,-0.9175,40,-13,4.878,122.379,0.6791,-0.73935,0.01715,37.19,-41.1,-11.5,3.866,0.2148,-0.4068,0.7966,410.122,-34.512,148.963,645.46,1,1,1,1
24-May-2018 12:30:53,2047,0.9497,-0.0875,0.4002,21.4115,-1.66216666666667,4.64483333333333,334.973,-0.621,0.1526,-0.9175,40,-13,4.878,122.379,0.6791,-0.73935,0.01715,37.19,-41.1,-11.5,3.866,0.2148,-0.4068,0.7966,410.122,-34.512,148.963,645.46,1,1,1,1
24-May-2018 12:30:53,2047,0.9497,-0.0875,0.4002,0,0,0,334.973,-0.621,0.1526,-0.9175,40,-13,4.878,0,0.6791,-0.73935,0.01715,37.19,-41.1,-11.5,0,0.2148,-0.4068,0.7966,410.122,-34.512,148.963,0,1,1,1,1
24-May-2018 12:30:54,2047,0.9495,-0.07245,0.2816,57.5,-2.92,9.207,334.973,-0.6188,0.067,-0.9276,32.31,12.25,7.439,122.379,0.6791,-0.73935,0.01715,37.19,-41.1,-11.5,4.07,0.2495,-0.5006,0.9896,44.207,2.805,50.732,741.342,1,1,1,1
24-May-2018 12:30:54,2047,0.9495,-0.07245,0.2816,57.5,-2.92,9.207,334.973,-0.6188,0.067,-0.9276,32.31,12.25,7.439,122.379,0.6791,-0.73935,0.01715,37.19,-41.1,-11.5,4.07,0.2495,-0.5006,0.9896,44.207,2.805,50.732,741.342,1,1,1,1
24-May-2018 12:30:54,2047,0.9495,-0.07245,0.2816,57.5,-2.92,9.207,0,-0.6188,0.067,-0.9276,32.31,12.25,7.439,122.379,0.6791,-0.73935,0.01715,37.19,-41.1,-11.5,4.07,0.2495,-0.5006,0.9896,44.207,2.805,50.732,741.342,1,1,1,1
24-May-2018 12:30:54,2047,0.9495,-0.07245,0.2816,57.5,-2.92,9.207,0,-0.6188,0.067,-0.9276,32.31,12.25,7.439,122.379,0,0,0,0,0,0,4.07,0.2495,-0.5006,0.9896,44.207,2.805,50.732,741.342,1,1,1,1
24-May-2018 12:30:55,-248.111111111111,1.108325,0.0925,0.109825,31.7541666666667,-2.70333333333333,-5.64766666666667,249.685,-0.6916,0.04164,-0.8142,8.19033333333334,-61.1477777777778,5.67088888888889,122.379,0.821342857142857,-0.5117,0.356271428571429,53.25,5.5345,-9.49,3.996,-0.0353666666666667,-0.4218,1.0081,6.433,9.86275,16.4635,841.31275,1,1,1,1
24-May-2018 12:30:55,-248.111111111111,1.108325,0.0925,0.109825,31.7541666666667,-2.70333333333333,-5.64766666666667,249.685,-0.6916,0.04164,-0.8142,8.19033333333334,-61.1477777777778,5.67088888888889,122.379,0.821342857142857,-0.5117,0.356271428571429,53.25,5.5345,-9.49,3.996,-0.0353666666666667,-0.4218,1.0081,6.433,9.86275,16.4635,841.31275,1,1,1,1
24-May-2018 12:30:55,-248.111111111111,1.108325,0.0925,0.109825,31.7541666666667,-2.70333333333333,-5.64766666666667,249.685,-0.6916,0.04164,-0.8142,8.19033333333334,-61.1477777777778,5.67088888888889,122.379,0.821342857142857,-0.5117,0.356271428571429,53.25,5.5345,-9.49,3.996,-0.0353666666666667,-0.4218,1.0081,6.433,9.86275,16.4635,841.31275,1,1,1,1
24-May-2018 12:30:55,-248.111111111111,1.108325,0.0925,0.109825,31.7541666666667,-2.70333333333333,-5.64766666666667,249.685,-0.6916,0.04164,-0.8142,8.19033333333334,-61.1477777777778,5.67088888888889,122.379,0.821342857142857,-0.5117,0.356271428571429,53.25,5.5345,-9.49,3.996,-0.0353666666666667,-0.4218,1.0081,6.433,9.86275,16.4635,841.31275,1,1,1,1
24-May-2018 12:30:56,-1824.36363636364,0.925614285714286,-0.0396142857142857,0.0483428571428571,-61.1714285714286,3.39871428571429,-2.01328571428571,208.493333333333,-0.769975,0.004025,-0.699075,19.5823,16.595,-6.6772,98.097,0.708285714285714,-0.655642857142857,0.0563571428571429,-50.0428571428572,31.8712857142857,-6.643,2.666,-0.2689,-0.477057142857143,0.747685714285714,1.981625,32.8125,-36.63775,847.785,1,1,1,1
24-May-2018 12:30:56,-1824.36363636364,0.925614285714286,-0.0396142857142857,0.0483428571428571,-61.1714285714286,3.39871428571429,-2.01328571428571,208.493333333333,-0.769975,0.004025,-0.699075,19.5823,16.595,-6.6772,98.097,0.708285714285714,-0.655642857142857,0.0563571428571429,-50.0428571428572,31.8712857142857,-6.643,2.666,-0.2689,-0.477057142857143,0.747685714285714,1.981625,32.8125,-36.63775,847.785,1,1,1,1
24-May-2018 12:30:56,-1824.36363636364,0.925614285714286,-0.0396142857142857,0.0483428571428571,-61.1714285714286,3.39871428571429,-2.01328571428571,208.493333333333,-0.769975,0.004025,-0.699075,19.5823,16.595,-6.6772,98.097,0.708285714285714,-0.655642857142857,0.0563571428571429,-50.0428571428572,31.8712857142857,-6.643,2.666,-0.2689,-0.477057142857143,0.747685714285714,1.981625,32.8125,-36.63775,847.785,1,1,1,1
24-May-2018 12:30:56,-1824.36363636364,0.925614285714286,-0.0396142857142857,0.0483428571428571,-61.1714285714286,3.39871428571429,-2.01328571428571,208.493333333333,-0.769975,0.004025,-0.699075,19.5823,16.595,-6.6772,98.097,0.708285714285714,-0.655642857142857,0.0563571428571429,-50.0428571428572,31.8712857142857,-6.643,2.666,-0.2689,-0.477057142857143,0.747685714285714,1.981625,32.8125,-36.63775,847.785,1,1,1,1
24-May-2018 12:30:57,-1800,0.97202,0.10418,0.07544,-78.1285714285714,-4.06314285714286,3.47785714285714,185.456,-0.71794,-0.07272,-0.75872,-0.652888888888888,-10.1191111111111,-13.3333333333333,85.956,0.826657142857143,-0.579671428571429,0.2571,-82.1333333333333,23.2603333333333,19.2491666666667,2.22,-0.57148,-0.44614,0.53244,11.7597142857143,55.0697142857143,-23.1525714285714,744.49475,1,1,1,1
24-May-2018 12:30:57,-1800,0.97202,0.10418,0.07544,-78.1285714285714,-4.06314285714286,3.47785714285714,185.456,-0.71794,-0.07272,-0.75872,-0.652888888888888,-10.1191111111111,-13.3333333333333,85.956,0.826657142857143,-0.579671428571429,0.2571,-82.1333333333333,23.2603333333333,19.2491666666667,2.22,-0.57148,-0.44614,0.53244,11.7597142857143,55.0697142857143,-23.1525714285714,744.49475,1,1,1,1
24-May-2018 12:30:57,-1800,0.97202,0.10418,0.07544,-78.1285714285714,-4.06314285714286,3.47785714285714,185.456,-0.71794,-0.07272,-0.75872,-0.652888888888888,-10.1191111111111,-13.3333333333333,85.956,0.826657142857143,-0.579671428571429,0.2571,-82.1333333333333,23.2603333333333,19.2491666666667,2.22,-0.57148,-0.44614,0.53244,11.7597142857143,55.0697142857143,-23.1525714285714,744.49475,1,1,1,1
24-May-2018 12:30:57,-1800,0.97202,0.10418,0.07544,-78.1285714285714,-4.06314285714286,3.47785714285714,185.456,-0.71794,-0.07272,-0.75872,-0.652888888888888,-10.1191111111111,-13.3333333333333,85.956,0.826657142857143,-0.579671428571429,0.2571,-82.1333333333333,23.2603333333333,19.2491666666667,2.22,-0.57148,-0.44614,0.53244,11.7597142857143,55.0697142857143,-23.1525714285714,744.49475,1,1,1,1
24-May-2018 12:30:58,-1234.6,0.872422222222222,-0.0645777777777778,0.0255222222222222,-46.6875,11.11375,0.37375,185.456,-0.75112,-0.07424,-0.72498,-15.7333333333333,-7.74377777777778,-2.25211111111111,84.4876666666667,0.847785714285714,-0.502442857142857,0.441514285714286,-41.6712,21.3472,-21.6212,3.4684,-0.980916666666666,-0.143033333333333,-0.156783333333333,83.374,2.002,-14.5018333333333,472.168666666667,1,1,1,1
24-May-2018 12:30:58,-1234.6,0.872422222222222,-0.0645777777777778,0.0255222222222222,-46.6875,11.11375,0.37375,185.456,-0.75112,-0.07424,-0.72498,-15.7333333333333,-7.74377777777778,-2.25211111111111,84.4876666666667,0.847785714285714,-0.502442857142857,0.441514285714286,-41.6712,21.3472,-21.6212,3.4684,-0.980916666666666,-0.143033333333333,-0.156783333333333,83.374,2.002,-14.5018333333333,472.168666666667,1,1,1,1
24-May-2018 12:30:58,-1234.6,0.872422222222222,-0.0645777777777778,0.0255222222222222,-46.6875,11.11375,0.37375,185.456,-0.75112,-0.07424,-0.72498,-15.7333333333333,-7.74377777777778,-2.25211111111111,84.4876666666667,0.847785714285714,-0.502442857142857,0.441514285714286,-41.6712,21.3472,-21.6212,3.4684,-0.980916666666666,-0.143033333333333,-0.156783333333333,83.374,2.002,-14.5018333333333,472.168666666667,1,1,1,1
24-May-2018 12:30:58,-1234.6,0.872422222222222,-0.0645777777777778,0.0255222222222222,-46.6875,11.11375,0.37375,185.456,-0.75112,-0.07424,-0.72498,-15.7333333333333,-7.74377777777778,-2.25211111111111,84.4876666666667,0.847785714285714,-0.502442857142857,0.441514285714286,-41.6712,21.3472,-21.6212,3.4684,-0.980916666666666,-0.143033333333333,-0.156783333333333,83.374,2.002,-14.5018333333333,472.168666666667,1,1,1,1
24-May-2018 12:30:59,-834.7,0.7955125,0.023775,-0.5810875,-18.5211111111111,-15.4566666666667,-1.62111111111111,185.456,-0.766275,-0.050475,-0.723375,-16.425,-0.310375,-4.49125,81.551,0.82718,-0.3131,0.46718,1.3125,0.24725,9.64775,1.8675,-0.9894,-0.122133333333333,-0.0353,45.9763333333333,-3.4145,-7.41883333333333,367.7765,1,1,1,1
24-May-2018 12:30:59,-834.7,0.7955125,0.023775,-0.5810875,-18.5211111111111,-15.4566666666667,-1.62111111111111,185.456,-0.766275,-0.050475,-0.723375,-16.425,-0.310375,-4.49125,81.551,0.82718,-0.3131,0.46718,1.3125,0.24725,9.64775,1.8675,-0.9894,-0.122133333333333,-0.0353,45.9763333333333,-3.4145,-7.41883333333333,367.7765,1,1,1,1
24-May-2018 12:30:59,-834.7,0.7955125,0.023775,-0.5810875,-18.5211111111111,-15.4566666666667,-1.62111111111111,185.456,-0.766275,-0.050475,-0.723375,-16.425,-0.310375,-4.49125,81.551,0.82718,-0.3131,0.46718,1.3125,0.24725,9.64775,1.8675,-0.9894,-0.122133333333333,-0.0353,45.9763333333333,-3.4145,-7.41883333333333,367.7765,1,1,1,1
24-May-2018 12:30:59,-834.7,0.7955125,0.023775,-0.5810875,-18.5211111111111,-15.4566666666667,-1.62111111111111,185.456,-0.766275,-0.050475,-0.723375,-16.425,-0.310375,-4.49125,81.551,0.82718,-0.3131,0.46718,1.3125,0.24725,9.64775,1.8675,-0.9894,-0.122133333333333,-0.0353,45.9763333333333,-3.4145,-7.41883333333333,367.7765,1,1,1,1
24-May-2018 12:31:00,579.888888888889,0.861644444444444,-0.0547888888888889,-0.353488888888889,-10.042125,24.662125,7.07275,185.456,-0.74756,-0.0238,-0.71726,-10.4866666666667,4.14022222222222,-5.34777777777778,81.551,0.775266666666667,-0.409466666666667,0.499166666666667,-22.28,0.9168,-7.1,4.5826,-0.93025,-0.1292875,0.018575,19.7038571428571,8.87628571428571,-1.51585714285714,651.705,1,1,1,1
24-May-2018 12:31:00,579.888888888889,0.861644444444444,-0.0547888888888889,-0.353488888888889,-10.042125,24.662125,7.07275,185.456,-0.74756,-0.0238,-0.71726,-10.4866666666667,4.14022222222222,-5.34777777777778,81.551,0.775266666666667,-0.409466666666667,0.499166666666667,-22.28,0.9168,-7.1,4.5826,-0.93025,-0.1292875,0.018575,19.7038571428571,8.87628571428571,-1.51585714285714,651.705,1,1,1,1
24-May-2018 12:31:00,579.888888888889,0.861644444444444,-0.0547888888888889,-0.353488888888889,-10.042125,24.662125,7.07275,185.456,-0.74756,-0.0238,-0.71726,-10.4866666666667,4.14022222222222,-5.34777777777778,81.551,0.775266666666667,-0.409466666666667,0.499166666666667,-22.28,0.9168,-7.1,4.5826,-0.93025,-0.1292875,0.018575,19.7038571428571,8.87628571428571,-1.51585714285714,651.705,1,1,1,1
24-May-2018 12:31:00,579.888888888889,0.861644444444444,-0.0547888888888889,-0.353488888888889,-10.042125,24.662125,7.07275,185.456,-0.74756,-0.0238,-0.71726,-10.4866666666667,4.14022222222222,-5.34777777777778,81.551,0.775266666666667,-0.409466666666667,0.499166666666667,-22.28,0.9168,-7.1,4.5826,-0.93025,-0.1292875,0.018575,19.7038571428571,8.87628571428571,-1.51585714285714,651.705,1,1,1,1
24-May-2018 12:31:01,1164.8,0.892866666666667,-0.0918,-0.268266666666667,-11.9142857142857,-6.11057142857143,3.72042857142857,83.8924,-0.75455,-0.0258,-0.72965,-1.0633,-1.6123,-3.679,79.9055,0.788928571428571,-0.4469,0.406214285714286,26.25,-20.435,0.832833333333335,7.24525,-0.98095,0.0484333333333333,-0.24065,-42.4214285714286,-8.04871428571429,-17.3694285714286,600.651,1,1,1,1
24-May-2018 12:31:01,1164.8,0.892866666666667,-0.0918,-0.268266666666667,-11.9142857142857,-6.11057142857143,3.72042857142857,83.8924,-0.75455,-0.0258,-0.72965,-1.0633,-1.6123,-3.679,79.9055,0.788928571428571,-0.4469,0.406214285714286,26.25,-20.435,0.832833333333335,7.24525,-0.98095,0.0484333333333333,-0.24065,-42.4214285714286,-8.04871428571429,-17.3694285714286,600.651,1,1,1,1
24-May-2018 12:31:01,1164.8,0.892866666666667,-0.0918,-0.268266666666667,-11.9142857142857,-6.11057142857143,3.72042857142857,83.8924,-0.75455,-0.0258,-0.72965,-1.0633,-1.6123,-3.679,79.9055,0.788928571428571,-0.4469,0.406214285714286,26.25,-20.435,0.832833333333335,7.24525,-0.98095,0.0484333333333333,-0.24065,-42.4214285714286,-8.04871428571429,-17.3694285714286,600.651,1,1,1,1
24-May-2018 12:31:01,1164.8,0.892866666666667,-0.0918,-0.268266666666667,-11.9142857142857,-6.11057142857143,3.72042857142857,83.8924,-0.75455,-0.0258,-0.72965,-1.0633,-1.6123,-3.679,79.9055,0.788928571428571,-0.4469,0.406214285714286,26.25,-20.435,0.832833333333335,7.24525,-0.98095,0.0484333333333333,-0.24065,-42.4214285714286,-8.04871428571429,-17.3694285714286,600.651,1,1,1,1
