TIME,HELMET_RAW,BELT_ACC_X,BELT_ACC_Y,BELT_ACC_Z,BELT_ANG_X,BELT_ANG_Y,BELT_ANG_Z,BELT_LUMINOSITY,NECK_ACC_X,NECK_ACC_Y,NECK_ACC_Z,NECK_ANG_X,NECK_ANG_Y,NECK_ANG_Z,NECK_LUMINOSITY,PCKT_ACC_X,PCKT_ACC_Y,PCKT_ACC_Z,PCKT_ANG_X,PCKT_ANG_Y,PCKT_ANG_Z,PCKT_LUMINOSITY,WRST_ACC_X,WRST_ACC_Y,WRST_ACC_Z,WRST_ANG_X,WRST_ANG_Y,WRST_ANG_Z,WRST_LUMINOSITY,IR_1,IR_2,IR_3,IR_4
24-May-2018 12:29:53,289.8,0.684933333333333,0.0167666666666667,-0.133933333333333,20.2138571428571,-182.308,-12.8414285714286,383.8135,-0.68755,-0.473725,-0.575825,-16.3566666666667,-10.4955555555556,-13.9611111111111,38.989,0.99004,-0.51078,0.83262,44.7716666666667,18.4683333333333,-2.2715,2.8915,-0.94165,-0.3845,-0.265075,-19.8941428571429,-61.6522857142857,6.11485714285714,683.3155,1,1,1,1
24-May-2018 12:29:53,289.8,0.684933333333333,0.0167666666666667,-0.133933333333333,20.2138571428571,-182.308,-12.8414285714286,383.8135,-0.68755,-0.473725,-0.575825,-16.3566666666667,-10.4955555555556,-13.9611111111111,38.989,0.99004,-0.51078,0.83262,44.7716666666667,18.4683333333333,-2.2715,2.8915,-0.94165,-0.3845,-0.265075,-19.8941428571429,-61.6522857142857,6.11485714285714,683.3155,1,1,1,1
24-May-2018 12:29:53,289.8,0.684933333333333,0.0167666666666667,-0.133933333333333,20.2138571428571,-182.308,-12.8414285714286,383.8135,-0.68755,-0.473725,-0.575825,-16.3566666666667,-10.4955555555556,-13.9611111111111,38.989,0.99004,-0.51078,0.83262,44.7716666666667,18.4683333333333,-2.2715,2.8915,-0.94165,-0.3845,-0.265075,-19.8941428571429,-61.6522857142857,6.11485714285714,683.3155,1,1,1,1
24-May-2018 12:29:53,289.8,0.684933333333333,0.0167666666666667,-0.133933333333333,20.2138571428571,-182.308,-12.8414285714286,383.8135,-0.68755,-0.473725,-0.575825,-16.3566666666667,-10.4955555555556,-13.9611111111111,38.989,0.99004,-0.51078,0.83262,44.7716666666667,18.4683333333333,-2.2715,2.8915,-0.94165,-0.3845,-0.265075,-19.8941428571429,-61.6522857142857,6.11485714285714,683.3155,1,1,1,1
24-May-2018 12:29:54,-103.625,0.583577777777778,0.00236666666666667,-0.0841888888888889,14.182,10.599,-4.542,366.881333333333,-0.69136,-0.48884,-0.58524,-17.82,-19.09625,-11.285,38.2675,0.365966666666667,-0.104166666666667,0.403716666666667,18.6628571428571,7.91428571428571,-2.59285714285714,3.5625,-0.459983333333333,-0.189933333333333,-0.0728666666666667,-23.5502222222222,-23.8474444444444,16.7207777777778,683.3155,1,1,1,1
24-May-2018 12:29:54,-103.625,0.583577777777778,0.00236666666666667,-0.0841888888888889,14.182,10.599,-4.542,366.881333333333,-0.69136,-0.48884,-0.58524,-17.82,-19.09625,-11.285,38.2675,0.365966666666667,-0.104166666666667,0.403716666666667,18.6628571428571,7.91428571428571,-2.59285714285714,3.5625,-0.459983333333333,-0.189933333333333,-0.0728666666666667,-23.5502222222222,-23.8474444444444,16.7207777777778,683.3155,1,1,1,1
24-May-2018 12:29:54,-103.625,0.583577777777778,0.00236666666666667,-0.0841888888888889,14.182,10.599,-4.542,366.881333333333,-0.69136,-0.48884,-0.58524,-17.82,-19.09625,-11.285,38.2675,0.365966666666667,-0.104166666666667,0.403716666666667,18.6628571428571,7.91428571428571,-2.59285714285714,3.5625,-0.459983333333333,-0.189933333333333,-0.0728666666666667,-23.5502222222222,-23.8474444444444,16.7207777777778,683.3155,1,1,1,1
24-May-2018 12:29:54,-103.625,0.583577777777778,0.00236666666666667,-0.0841888888888889,14.182,10.599,-4.542,366.881333333333,-0.69136,-0.48884,-0.58524,-17.82,-19.09625,-11.285,38.2675,0.365966666666667,-0.104166666666667,0.403716666666667,18.6628571428571,7.91428571428571,-2.59285714285714,3.5625,-0.459983333333333,-0.189933333333333,-0.0728666666666667,-23.5502222222222,-23.8474444444444,16.7207777777778,0,1,1,1,1
24-May-2018 12:29:55,1805,0.754725,0.0434583333333333,-0.140216666666667,9.712,-8.704,52.556,366.881333333333,-0.702825,-0.48485,-0.568225,-13.156,-13.798,-9.982,37.546,0.577928571428571,-0.540042857142857,0.418514285714286,58.675,43.6625,-22.511,3.14475,-1.10921428571429,-0.547642857142857,-0.365028571428571,-1.19716666666666,25.59,40.5893333333333,675.126,1,1,1,1
24-May-2018 12:29:55,1805,0.754725,0.0434583333333333,-0.140216666666667,9.712,-8.704,52.556,366.881333333333,-0.702825,-0.48485,-0.568225,-13.156,-13.798,-9.982,37.546,0.577928571428571,-0.540042857142857,0.418514285714286,58.675,43.6625,-22.511,3.14475,-1.10921428571429,-0.547642857142857,-0.365028571428571,-1.19716666666666,25.59,40.5893333333333,675.126,1,1,1,1
24-May-2018 12:29:55,1805,0.754725,0.0434583333333333,-0.140216666666667,9.712,-8.704,52.556,366.881333333333,-0.702825,-0.48485,-0.568225,-13.156,-13.798,-9.982,37.546,0.577928571428571,-0.540042857142857,0.418514285714286,58.675,43.6625,-22.511,3.14475,-1.10921428571429,-0.547642857142857,-0.365028571428571,-1.19716666666666,25.59,40.5893333333333,675.126,1,1,1,1
24-May-2018 12:29:55,1805,0.754725,0.0434583333333333,-0.140216666666667,9.712,-8.704,52.556,366.881333333333,-0.702825,-0.48485,-0.568225,-13.156,-13.798,-9.982,37.546,0.577928571428571,-0.540042857142857,0.418514285714286,58.675,43.6625,-22.511,3.14475,-1.10921428571429,-0.547642857142857,-0.365028571428571,-1.19716666666666,25.59,40.5893333333333,675.126,1,1,1,1
24-May-2018 12:29:56,2047,0.975314285714286,-0.0423,0.0554142857142857,-1.65,81.9316666666667,-18.2431666666667,366.881333333333,-0.704733333333333,-0.485166666666667,-0.5629,-4.72766666666667,-4.66633333333333,-5.915,37.546,1.05642,-0.53474,0.8643,22.9566666666667,-57.345,12.605,3.26266666666667,-0.788985714285714,-0.3696,-0.277071428571429,25.7054285714286,-30.5834285714286,-20.8092857142857,517.739,1,1,1,1
24-May-2018 12:29:56,2047,0.975314285714286,-0.0423,0.0554142857142857,-1.65,81.9316666666667,-18.2431666666667,366.881333333333,-0.704733333333333,-0.485166666666667,-0.5629,-4.72766666666667,-4.66633333333333,-5.915,37.546,1.05642,-0.53474,0.8643,22.9566666666667,-57.345,12.605,3.26266666666667,-0.788985714285714,-0.3696,-0.277071428571429,25.7054285714286,-30.5834285714286,-20.8092857142857,517.739,1,1,1,1
24-May-2018 12:29:56,2047,0.975314285714286,-0.0423,0.0554142857142857,-1.65,81.9316666666667,-18.2431666666667,366.881333333333,-0.704733333333333,-0.485166666666667,-0.5629,-4.72766666666667,-4.66633333333333,-5.915,37.546,1.05642,-0.53474,0.8643,22.9566666666667,-57.345,12.605,3.26266666666667,-0.788985714285714,-0.3696,-0.277071428571429,25.7054285714286,-30.5834285714286,-20.8092857142857,517.739,1,1,1,1
24-May-2018 12:29:56,2047,0.975314285714286,-0.0423,0.0554142857142857,-1.65,81.9316666666667,-18.2431666666667,366.881333333333,-0.704733333333333,-0.485166666666667,-0.5629,-4.72766666666667,-4.66633333333333,-5.915,37.546,1.05642,-0.53474,0.8643,22.9566666666667,-57.345,12.605,3.26266666666667,-0.788985714285714,-0.3696,-0.277071428571429,25.7054285714286,-30.5834285714286,-20.8092857142857,517.739,1,1,1,1
24-May-2018 12:29:57,1932.77777777778,0.975314285714286,-0.0423,0.0554142857142857,-1.65,81.9316666666667,-18.2431666666667,366.881333333333,-0.6999,-0.4938,-0.5479,-4.72766666666667,-4.66633333333333,-5.915,37.546,1.05642,-0.53474,0.8643,22.9566666666667,-57.345,12.605,3.26266666666667,-0.788985714285714,-0.3696,-0.277071428571429,25.7054285714286,-30.5834285714286,-20.8092857142857,517.739,1,1,1,1
24-May-2018 12:29:57,1932.77777777778,0.975314285714286,-0.0423,0.0554142857142857,-1.65,81.9316666666667,-18.2431666666667,366.881333333333,-0.6999,-0.4938,-0.5479,-4.72766666666667,-4.66633333333333,-5.915,37.546,1.05642,-0.53474,0.8643,22.9566666666667,-57.345,12.605,3.26266666666667,-0.788985714285714,-0.3696,-0.277071428571429,25.7054285714286,-30.5834285714286,-20.8092857142857,517.739,1,1,1,1
24-May-2018 12:29:57,1932.77777777778,0.975314285714286,-0.0423,0.0554142857142857,-1.65,81.9316666666667,-18.2431666666667,366.881333333333,-0.6999,-0.4938,-0.5479,-4.72766666666667,-4.66633333333333,-5.915,37.546,1.05642,-0.53474,0.8643,22.9566666666667,-57.345,12.605,3.26266666666667,-0.788985714285714,-0.3696,-0.277071428571429,25.7054285714286,-30.5834285714286,-20.8092857142857,517.739,1,1,1,1
24-May-2018 12:29:57,1932.77777777778,0,0,0,0,0,0,366.881333333333,-0.6999,-0.4938,-0.5479,0,0,0,0,0,0,0,0,0,0,0,0,0,0,0,0,0,0,1,1,1,1
24-May-2018 12:29:58,-1681.6,0.514877777777778,-0.0304666666666667,-0.283011111111111,3.477,-121.44875,5.8475,366.881333333333,-0.70825,-0.493633333333333,-0.5533,2.40925,5.075125,0.1685,39.694,0.89436,-0.48662,0.44468,1.4,-2.348,-3.3406,2.986,-0.582383333333333,-0.18495,-0.11575,-2.439,47.2664285714286,-30.086,544.678,1,1,1,0
24-May-2018 12:29:58,-1681.6,0.514877777777778,-0.0304666666666667,-0.283011111111111,3.477,-121.44875,5.8475,366.881333333333,-0.70825,-0.493633333333333,-0.5533,2.40925,5.075125,0.1685,39.694,0.89436,-0.48662,0.44468,1.4,-2.348,-3.3406,2.986,-0.582383333333333,-0.18495,-0.11575,-2.439,47.2664285714286,-30.086,544.678,1,1,1,0
24-May-2018 12:29:58,-1681.6,0.514877777777778,-0.0304666666666667,-0.283011111111111,3.477,-121.44875,5.8475,366.881333333333,-0.70825,-0.493633333333333,-0.5533,2.40925,5.075125,0.1685,39.694,0.89436,-0.48662,0.44468,1.4,-2.348,-3.3406,2.986,-0.582383333333333,-0.18495,-0.11575,-2.439,47.2664285714286,-30.086,544.678,1,1,1,0
24-May-2018 12:29:58,-1681.6,0.514877777777778,-0.0304666666666667,-0.283011111111111,3.477,-121.44875,5.8475,0,-0.70825,-0.493633333333333,-0.5533,2.40925,5.075125,0.1685,39.694,0.89436,-0.48662,0.44468,1.4,-2.348,-3.3406,2.986,-0.582383333333333,-0.18495,-0.11575,-2.439,47.2664285714286,-30.086,544.678,1,1,1,0
24-May-2018 12:29:59,-2048,0.346433333333333,-0.0206333333333333,-0.0713333333333333,7.51833333333333,-14.8183333333333,7.584,375.694,-0.69798,-0.49058,-0.55514,4.474375,1.53475,3.1175,40.9616666666667,0.389628571428571,-0.1416,0.2509,38.4833333333333,29.1666666666667,-8.62,3.45125,-0.8894,-0.358242857142857,-0.180085714285714,-38.5785714285714,-5.60871428571428,13.8848571428571,562.738,1,1,1,1
24-May-2018 12:29:59,-2048,0.346433333333333,-0.0206333333333333,-0.0713333333333333,7.51833333333333,-14.8183333333333,7.584,375.694,-0.69798,-0.49058,-0.55514,4.474375,1.53475,3.1175,40.9616666666667,0.389628571428571,-0.1416,0.2509,38.4833333333333,29.1666666666667,-8.62,3.45125,-0.8894,-0.358242857142857,-0.180085714285714,-38.5785714285714,-5.60871428571428,13.8848571428571,562.738,1,1,1,1
24-May-2018 12:29:59,-2048,0.346433333333333,-0.0206333333333333,-0.0713333333333333,7.51833333333333,-14.8183333333333,7.584,375.694,-0.69798,-0.49058,-0.55514,4.474375,1.53475,3.1175,40.9616666666667,0.389628571428571,-0.1416,0.2509,38.4833333333333,29.1666666666667,-8.62,3.45125,-0.8894,-0.358242857142857,-0.180085714285714,-38.5785714285714,-5.60871428571428,13.8848571428571,562.738,1,1,1,1
24-May-2018 12:29:59,-2048,0.346433333333333,-0.0206333333333333,-0.0713333333333333,7.51833333333333,-14.8183333333333,7.584,375.694,-0.69798,-0.49058,-0.55514,4.474375,1.53475,3.1175,40.9616666666667,0.389628571428571,-0.1416,0.2509,38.4833333333333,29.1666666666667,-8.62,3.45125,-0.8894,-0.358242857142857,-0.180085714285714,-38.5785714285714,-5.60871428571428,13.8848571428571,562.738,1,1,1,1
24-May-2018 12:30:00,94.9,0.960166666666667,-0.0366,0.0565333333333333,-1.38066666666667,0.0541666666666669,-0.6675,343.4842,-0.7087,-0.4796,-0.56445,-3.44044444444444,-3.66911111111111,3.61788888888889,41.349,0.05885,-0.01715,0.1093,-12.6925,-28.97875,11.333625,3.59466666666667,-0.89816,-0.28728,-0.1174,-27.65175,-3.856625,-7.1875,531.477,1,1,1,1
24-May-2018 12:30:00,94.9,0.960166666666667,-0.0366,0.0565333333333333,-1.38066666666667,0.0541666666666669,-0.6675,343.4842,-0.7087,-0.4796,-0.56445,-3.44044444444444,-3.66911111111111,3.61788888888889,41.349,0.05885,-0.01715,0.1093,-12.6925,-28.97875,11.333625,3.59466666666667,-0.89816,-0.28728,-0.1174,-27.65175,-3.856625,-7.1875,531.477,1,1,1,1
24-May-2018 12:30:00,94.9,0.960166666666667,-0.0366,0.0565333333333333,-1.38066666666667,0.0541666666666669,-0.6675,343.4842,-0.7087,-0.4796,-0.56445,-3.44044444444444,-3.66911111111111,3.61788888888889,41.349,0.05885,-0.01715,0.1093,-12.6925,-28.97875,11.333625,3.59466666666667,-0.89816,-0.28728,-0.1174,-27.65175,-3.856625,-7.1875,531.477,1,1,1,1
24-May-2018 12:30:00,94.9,0.960166666666667,-0.0366,0.0565333333333333,-1.38066666666667,0.0541666666666669,-0.6675,343.4842,-0.7087,-0.4796,-0.56445,-3.44044444444444,-3.66911111111111,3.61788888888889,41.349,0.05885,-0.01715,0.1093,-12.6925,-28.97875,11.333625,3.59466666666667,-0.89816,-0.28728,-0.1174,-27.65175,-3.856625,-7.1875,531.477,1,1,1,1
24-May-2018 12:30:01,244.555555555556,0.9537,-0.01895,0.129016666666667,0.82525,6.59975,-1.429,212.723,-0.710666666666667,-0.453666666666667,-0.584616666666667,-3.35042857142857,4.192,0.724,41.42775,0.840171428571429,-0.603228571428571,0.136057142857143,11.38475,-6.67275,1.17625,3.2962,-0.89294,-0.33308,-0.12712,8.42357142857143,-3.81542857142857,-24.2158571428571,575.6765,1,1,1,1
24-May-2018 12:30:01,244.555555555556,0.9537,-0.01895,0.129016666666667,0.82525,6.59975,-1.429,212.723,-0.710666666666667,-0.453666666666667,-0.584616666666667,-3.35042857142857,4.192,0.724,41.42775,0.840171428571429,-0.603228571428571,0.136057142857143,11.38475,-6.67275,1.17625,3.2962,-0.89294,-0.33308,-0.12712,8.42357142857143,-3.81542857142857,-24.2158571428571,575.6765,1,1,1,1
24-May-2018 12:30:01,244.555555555556,0.9537,-0.01895,0.129016666666667,0.82525,6.59975,-1.429,212.723,-0.710666666666667,-0.453666666666667,-0.584616666666667,-3.35042857142857,4.192,0.724,41.42775,0.840171428571429,-0.603228571428571,0.136057142857143,11.38475,-6.67275,1.17625,3.2962,-0.89294,-0.33308,-0.12712,8.42357142857143,-3.81542857142857,-24.2158571428571,575.6765,1,1,1,1
24-May-2018 12:30:01,244.555555555556,0.9537,-0.01895,0.129016666666667,0.82525,6.59975,-1.429,212.723,-0.710666666666667,-0.453666666666667,-0.584616666666667,-3.35042857142857,4.192,0.724,41.42775,0.840171428571429,-0.603228571428571,0.136057142857143,11.38475,-6.67275,1.17625,3.2962,-0.89294,-0.33308,-0.12712,8.42357142857143,-3.81542857142857,-24.2158571428571,575.6765,1,1,1,1
24-May-2018 12:30:02,-2042.33333333333,0.954171428571429,0.00217142857142857,0.177142857142857,4.14766666666667,3.172,0.824,447.3925,-0.699266666666667,-0.457166666666667,-0.594166666666667,-2.6548,-2.5086,-0.4111,41.454,0.788275,-0.5699375,0.1601375,-6.7554,-1.447,0.5982,3.377,0.082125,-0.6265875,0.098125,31.179,65.9453333333334,-118.463666666667,575.6765,1,1,1,1
24-May-2018 12:30:02,-2042.33333333333,0.954171428571429,0.00217142857142857,0.177142857142857,4.14766666666667,3.172,0.824,447.3925,-0.699266666666667,-0.457166666666667,-0.594166666666667,-2.6548,-2.5086,-0.4111,41.454,0.788275,-0.5699375,0.1601375,-6.7554,-1.447,0.5982,3.377,0.082125,-0.6265875,0.098125,31.179,65.9453333333334,-118.463666666667,575.6765,1,1,1,1
24-May-2018 12:30:02,-2042.33333333333,0.954171428571429,0.00217142857142857,0.177142857142857,4.14766666666667,3.172,0.824,447.3925,-0.699266666666667,-0.457166666666667,-0.594166666666667,-2.6548,-2.5086,-0.4111,41.454,0.788275,-0.5699375,0.1601375,-6.7554,-1.447,0.5982,3.377,0.082125,-0.6265875,0.098125,31.179,65.9453333333334,-118.463666666667,575.6765,1,1,1,1
24-May-2018 12:30:02,-2042.33333333333,0.954171428571429,0.00217142857142857,0.177142857142857,4.14766666666667,3.172,0.824,447.3925,-0.699266666666667,-0.457166666666667,-0.594166666666667,-2.6548,-2.5086,-0.4111,41.454,0.788275,-0.5699375,0.1601375,-6.7554,-1.447,0.5982,3.377,0.082125,-0.6265875,0.098125,31.179,65.9453333333334,-118.463666666667,0,1,1,1,1
24-May-2018 12:30:03,-1632.9,0.9465,-0.014325,0.20835,3.87075,1.434,1.380375,445.542,-0.71794,-0.44872,-0.58386,0.150444444444444,-2.121,-1.45955555555556,41.73525,0.780885714285714,-0.585414285714286,0.0302,-5.9275,-2.313,0.255166666666667,3.3878,0.5098375,-0.52355,0.4099375,15.869,-21.433,67.7135,870.7224,1,1,1,1
24-May-2018 12:30:03,-1632.9,0.9465,-0.014325,0.20835,3.87075,1.434,1.380375,445.542,-0.71794,-0.44872,-0.58386,0.150444444444444,-2.121,-1.45955555555556,41.73525,0.780885714285714,-0.585414285714286,0.0302,-5.9275,-2.313,0.255166666666667,3.3878,0.5098375,-0.52355,0.4099375,15.869,-21.433,67.7135,870.7224,1,1,1,1
24-May-2018 12:30:03,-1632.9,0.9465,-0.014325,0.20835,3.87075,1.434,1.380375,445.542,-0.71794,-0.44872,-0.58386,0.150444444444444,-2.121,-1.45955555555556,41.73525,0.780885714285714,-0.585414285714286,0.0302,-5.9275,-2.313,0.255166666666667,3.3878,0.5098375,-0.52355,0.4099375,15.869,-21.433,67.7135,870.7224,1,1,1,1
24-May-2018 12:30:03,-1632.9,0.9465,-0.014325,0.20835,3.87075,1.434,1.380375,445.542,-0.71794,-0.44872,-0.58386,0.150444444444444,-2.121,-1.45955555555556,41.73525,0.780885714285714,-0.585414285714286,0.0302,-5.9275,-2.313,0.255166666666667,3.3878,0.5098375,-0.52355,0.4099375,15.869,-21.433,67.7135,870.7224,1,1,1,1
24-May-2018 12:30:04,-1132.88888888889,0.938075,-0.0029875,0.2451625,0.366833333333333,1.31233333333333,0.0631666666666667,482.008,-0.7047,-0.45762,-0.58188,-1.407125,7.506,-1.9,42.579,0.776342857142857,-0.589057142857143,0.0147714285714286,1.9365,-2.1685,-0.575,3.30025,-0.646816666666667,-0.6056,0.4487,76.890375,66.98175,29.11575,561.459,1,1,1,1
24-May-2018 12:30:04,-1132.88888888889,0.938075,-0.0029875,0.2451625,0.366833333333333,1.31233333333333,0.0631666666666667,482.008,-0.7047,-0.45762,-0.58188,-1.407125,7.506,-1.9,42.579,0.776342857142857,-0.589057142857143,0.0147714285714286,1.9365,-2.1685,-0.575,3.30025,-0.646816666666667,-0.6056,0.4487,76.890375,66.98175,29.11575,561.459,1,1,1,1
24-May-2018 12:30:04,-1132.88888888889,0.938075,-0.0029875,0.2451625,0.366833333333333,1.31233333333333,0.0631666666666667,482.008,-0.7047,-0.45762,-0.58188,-1.407125,7.506,-1.9,42.579,0.776342857142857,-0.589057142857143,0.0147714285714286,1.9365,-2.1685,-0.575,3.30025,-0.646816666666667,-0.6056,0.4487,76.890375,66.98175,29.11575,561.459,1,1,1,1
24-May-2018 12:30:04,-1132.88888888889,0.938075,-0.0029875,0.2451625,0.366833333333333,1.31233333333333,0.0631666666666667,482.008,-0.7047,-0.45762,-0.58188,-1.407125,7.506,-1.9,42.579,0.776342857142857,-0.589057142857143,0.0147714285714286,1.9365,-2.1685,-0.575,3.30025,-0.646816666666667,-0.6056,0.4487,76.890375,66.98175,29.11575,561.459,1,1,1,1
24-May-2018 12:30:05,828.428571428571,0.9490625,0.01355,0.2313625,-1.344,15.597375,-2.858625,449.365,-0.7072,-0.451875,-0.59135,-3.2875,-3.5186,-0.3763,42.579,0.7760125,-0.5898875,0.0168625,-1.13785714285714,-1.25114285714286,0.133428571428571,3.253,-0.713885714285714,-0.6484,0.267471428571429,-0.634,-1.9634,3.9144,594.35025,1,1,1,1
24-May-2018 12:30:05,828.428571428571,0.9490625,0.01355,0.2313625,-1.344,15.597375,-2.858625,449.365,-0.7072,-0.451875,-0.59135,-3.2875,-3.5186,-0.3763,42.579,0.7760125,-0.5898875,0.0168625,-1.13785714285714,-1.25114285714286,0.133428571428571,3.253,-0.713885714285714,-0.6484,0.267471428571429,-0.634,-1.9634,3.9144,594.35025,1,1,1,1
24-May-2018 12:30:05,828.428571428571,0.9490625,0.01355,0.2313625,-1.344,15.597375,-2.858625,449.365,-0.7072,-0.451875,-0.59135,-3.2875,-3.5186,-0.3763,42.579,0.7760125,-0.5898875,0.0168625,-1.13785714285714,-1.25114285714286,0.133428571428571,3.253,-0.713885714285714,-0.6484,0.267471428571429,-0.634,-1.9634,3.9144,594.35025,1,1,1,1
24-May-2018 12:30:05,828.428571428571,0.9490625,0.01355,0.2313625,-1.344,15.597375,-2.858625,449.365,-0.7072,-0.451875,-0.59135,-3.2875,-3.5186,-0.3763,42.579,0.7760125,-0.5898875,0.0168625,-1.13785714285714,-1.25114285714286,0.133428571428571,3.253,-0.713885714285714,-0.6484,0.267471428571429,-0.634,-1.9634,3.9144,594.35025,1,1,1,1
24-May-2018 12:30:06,1765.4,0.9303625,0.037475,0.2377625,2.282,-2.384125,-0.987375,449.365,-0.70255,-0.444875,-0.600475,2.779,5.08822222222222,-1.37177777777778,43.398,0.7447,-0.59285,0.0209833333333333,2.54183333333333,-0.622166666666666,0.804,3.352,-0.71346,-0.58892,0.2838,0.984428571428571,-0.688142857142857,1.24557142857143,567.502,1,1,1,1
24-May-2018 12:30:06,1765.4,0.9303625,0.037475,0.2377625,2.282,-2.384125,-0.987375,449.365,-0.70255,-0.444875,-0.600475,2.779,5.08822222222222,-1.37177777777778,43.398,0.7447,-0.59285,0.0209833333333333,2.54183333333333,-0.622166666666666,0.804,3.352,-0.71346,-0.58892,0.2838,0.984428571428571,-0.688142857142857,1.24557142857143,567.502,1,1,1,1
24-May-2018 12:30:06,1765.4,0.9303625,0.037475,0.2377625,2.282,-2.384125,-0.987375,449.365,-0.70255,-0.444875,-0.600475,2.779,5.08822222222222,-1.37177777777778,43.398,0.7447,-0.59285,0.0209833333333333,2.54183333333333,-0.622166666666666,0.804,3.352,-0.71346,-0.58892,0.2838,0.984428571428571,-0.688142857142857,1.24557142857143,567.502,1,1,1,1
24-May-2018 12:30:06,1765.4,0.9303625,0.037475,0.2377625,2.282,-2.384125,-0.987375,449.365,-0.70255,-0.444875,-0.600475,2.779,5.08822222222222,-1.37177777777778,43.398,0.7447,-0.59285,0.0209833333333333,2.54183333333333,-0.622166666666666,0.804,3.352,-0.71346,-0.58892,0.2838,0.984428571428571,-0.688142857142857,1.24557142857143,567.502,1,1,1,1
24-May-2018 12:30:07,2036.11111111111,0.9317875,0.0425,0.2865625,2.11366666666667,1.146,0.779666666666667,449.365,-0.69522,-0.4632,-0.59744,4.94675,7.491625,1.958875,43.398,0.761483333333333,-0.60205,0.0553833333333333,0.00228571428571429,-3.17285714285714,0.0014285714285714,3.32525,-0.717716666666667,-0.60025,0.251766666666667,1.52433333333333,3.994,-1.35133333333333,546.486333333333,1,1,1,1
24-May-2018 12:30:07,2036.11111111111,0.9317875,0.0425,0.2865625,2.11366666666667,1.146,0.779666666666667,449.365,-0.69522,-0.4632,-0.59744,4.94675,7.491625,1.958875,43.398,0.761483333333333,-0.60205,0.0553833333333333,0.00228571428571429,-3.17285714285714,0.0014285714285714,3.32525,-0.717716666666667,-0.60025,0.251766666666667,1.52433333333333,3.994,-1.35133333333333,546.486333333333,1,1,1,1
24-May-2018 12:30:07,2036.11111111111,0.9317875,0.0425,0.2865625,2.11366666666667,1.146,0.779666666666667,449.365,-0.69522,-0.4632,-0.59744,4.94675,7.491625,1.958875,43.398,0.761483333333333,-0.60205,0.0553833333333333,0.00228571428571429,-3.17285714285714,0.0014285714285714,3.32525,-0.717716666666667,-0.60025,0.251766666666667,1.52433333333333,3.994,-1.35133333333333,546.486333333333,1,1,1,1
24-May-2018 12:30:07,2036.11111111111,0.9317875,0.0425,0.2865625,2.11366666666667,1.146,0.779666666666667,449.365,-0.69522,-0.4632,-0.59744,4.94675,7.491625,1.958875,43.398,0.761483333333333,-0.60205,0.0553833333333333,0.00228571428571429,-3.17285714285714,0.0014285714285714,3.32525,-0.717716666666667,-0.60025,0.251766666666667,1.52433333333333,3.994,-1.35133333333333,546.486333333333,1,1,1,1
24-May-2018 12:30:08,1649.55555555556,0.9275375,0.0367625,0.2963125,1.234875,-2.19125,0.853875,449.365,-0.6988,-0.457125,-0.59755,-1.07771428571429,0.872,2.87457142857143,44.0675,0.76098,-0.61242,0.03754,-0.0986666666666667,-1.66166666666667,0.244,3.3325,-0.71726,-0.61084,0.23694,2.1464,-0.1098,-1.5854,546.486333333333,1,1,1,1
24-May-2018 12:30:08,1649.55555555556,0.9275375,0.0367625,0.2963125,1.234875,-2.19125,0.853875,449.365,-0.6988,-0.457125,-0.59755,-1.07771428571429,0.872,2.87457142857143,44.0675,0.76098,-0.61242,0.03754,-0.0986666666666667,-1.66166666666667,0.244,3.3325,-0.71726,-0.61084,0.23694,2.1464,-0.1098,-1.5854,546.486333333333,1,1,1,1
24-May-2018 12:30:08,1649.55555555556,0.9275375,0.0367625,0.2963125,1.234875,-2.19125,0.853875,449.365,-0.6988,-0.457125,-0.59755,-1.07771428571429,0.872,2.87457142857143,44.0675,0.76098,-0.61242,0.03754,-0.0986666666666667,-1.66166666666667,0.244,3.3325,-0.71726,-0.61084,0.23694,2.1464,-0.1098,-1.5854,546.486333333333,1,1,1,1
24-May-2018 12:30:08,1649.55555555556,0.9275375,0.0367625,0.2963125,1.234875,-2.19125,0.853875,449.365,-0.6988,-0.457125,-0.59755,-1.07771428571429,0.872,2.87457142857143,44.0675,0.76098,-0.61242,0.03754,-0.0986666666666667,-1.66166666666667,0.244,3.3325,-0.71726,-0.61084,0.23694,2.1464,-0.1098,-1.5854,0,1,1,1,1
24-May-2018 12:30:09,1303.5,0.934983333333333,0.0364,0.275066666666667,-0.0704,1.4024,-0.082,461.339,-0.6969,-0.451625,-0.604575,0.672666666666666,5.03288888888889,0.624444444444444,44.737,0.757485714285714,-0.615028571428571,0.0559571428571429,0.0547142857142858,-1.094,-0.153714285714286,3.403,-0.705671428571429,-0.604157142857143,0.271285714285714,1.838,-0.304857142857143,-0.0174285714285715,551.151,1,1,1,1
24-May-2018 12:30:09,1303.5,0.934983333333333,0.0364,0.275066666666667,-0.0704,1.4024,-0.082,461.339,-0.6969,-0.451625,-0.604575,0.672666666666666,5.03288888888889,0.624444444444444,44.737,0.757485714285714,-0.615028571428571,0.0559571428571429,0.0547142857142858,-1.094,-0.153714285714286,3.403,-0.705671428571429,-0.604157142857143,0.271285714285714,1.838,-0.304857142857143,-0.0174285714285715,551.151,1,1,1,1
24-May-2018 12:30:09,1303.5,0.934983333333333,0.0364,0.275066666666667,-0.0704,1.4024,-0.082,461.339,-0.6969,-0.451625,-0.604575,0.672666666666666,5.03288888888889,0.624444444444444,44.737,0.757485714285714,-0.615028571428571,0.0559571428571429,0.0547142857142858,-1.094,-0.153714285714286,3.403,-0.705671428571429,-0.604157142857143,0.271285714285714,1.838,-0.304857142857143,-0.0174285714285715,551.151,1,1,1,1
24-May-2018 12:30:09,1303.5,0.934983333333333,0.0364,0.275066666666667,-0.0704,1.4024,-0.082,461.339,-0.6969,-0.451625,-0.604575,0.672666666666666,5.03288888888889,0.624444444444444,44.737,0.757485714285714,-0.615028571428571,0.0559571428571429,0.0547142857142858,-1.094,-0.153714285714286,3.403,-0.705671428571429,-0.604157142857143,0.271285714285714,1.838,-0.304857142857143,-0.0174285714285715,551.151,1,1,1,1
24-May-2018 12:30:10,1092.33333333333,0.92428,0.0432,0.3078,-0.385333333333333,3.63833333333333,-0.0986666666666667,472.435,-0.699,-0.451125,-0.59555,-0.966888888888889,-5.97522222222222,2.94722222222222,44.737,0.759433333333333,-0.613883333333333,0.0420666666666667,-1.20333333333333,-0.91,-0.31,3.3416,-0.702733333333333,-0.622366666666667,0.2393,1.359,3.92857142857143,-1.01914285714286,551.837,1,1,1,1
24-May-2018 12:30:10,1092.33333333333,0.92428,0.0432,0.3078,-0.385333333333333,3.63833333333333,-0.0986666666666667,472.435,-0.699,-0.451125,-0.59555,-0.966888888888889,-5.97522222222222,2.94722222222222,44.737,0.759433333333333,-0.613883333333333,0.0420666666666667,-1.20333333333333,-0.91,-0.31,3.3416,-0.702733333333333,-0.622366666666667,0.2393,1.359,3.92857142857143,-1.01914285714286,551.837,1,1,1,1
24-May-2018 12:30:10,1092.33333333333,0.92428,0.0432,0.3078,-0.385333333333333,3.63833333333333,-0.0986666666666667,472.435,-0.699,-0.451125,-0.59555,-0.966888888888889,-5.97522222222222,2.94722222222222,44.737,0.759433333333333,-0.613883333333333,0.0420666666666667,-1.20333333333333,-0.91,-0.31,3.3416,-0.702733333333333,-0.622366666666667,0.2393,1.359,3.92857142857143,-1.01914285714286,551.837,1,1,1,1
24-May-2018 12:30:10,1092.33333333333,0.92428,0.0432,0.3078,-0.385333333333333,3.63833333333333,-0.0986666666666667,472.435,-0.699,-0.451125,-0.59555,-0.966888888888889,-5.97522222222222,2.94722222222222,44.737,0.759433333333333,-0.613883333333333,0.0420666666666667,-1.20333333333333,-0.91,-0.31,3.3416,-0.702733333333333,-0.622366666666667,0.2393,1.359,3.92857142857143,-1.01914285714286,551.837,1,1,1,1
24-May-2018 12:30:11,827,0.93066,0.04234,0.28364,0.592714285714286,-5.86857142857143,0.471,472.786666666667,-0.70676,-0.44556,-0.59782,0.410555555555556,-0.0777777777777778,2.22933333333333,44.7106666666667,0.7619,-0.61056,0.0495,0.0635,1.22,-0.473333333333333,3.247,-0.705185714285714,-0.622228571428572,0.237385714285714,1.14985714285714,-0.488,-0.191571428571429,515.926,1,1,1,1
24-May-2018 12:30:11,827,0.93066,0.04234,0.28364,0.592714285714286,-5.86857142857143,0.471,472.786666666667,-0.70676,-0.44556,-0.59782,0.410555555555556,-0.0777777777777778,2.22933333333333,44.7106666666667,0.7619,-0.61056,0.0495,0.0635,1.22,-0.473333333333333,3.247,-0.705185714285714,-0.622228571428572,0.237385714285714,1.14985714285714,-0.488,-0.191571428571429,515.926,1,1,1,1
24-May-2018 12:30:11,827,0.93066,0.04234,0.28364,0.592714285714286,-5.86857142857143,0.471,472.786666666667,-0.70676,-0.44556,-0.59782,0.410555555555556,-0.0777777777777778,2.22933333333333,44.7106666666667,0.7619,-0.61056,0.0495,0.0635,1.22,-0.473333333333333,3.247,-0.705185714285714,-0.622228571428572,0.237385714285714,1.14985714285714,-0.488,-0.191571428571429,515.926,1,1,1,1
24-May-2018 12:30:11,827,0.93066,0.04234,0.28364,0.592714285714286,-5.86857142857143,0.471,472.786666666667,-0.70676,-0.44556,-0.59782,0.410555555555556,-0.0777777777777778,2.22933333333333,44.7106666666667,0.7619,-0.61056,0.0495,0.0635,1.22,-0.473333333333333,3.247,-0.705185714285714,-0.622228571428572,0.237385714285714,1.14985714285714,-0.488,-0.191571428571429,515.926,1,1,1,1
24-May-2018 12:30:12,594.888888888889,0.944257142857143,0.0409142857142857,0.221771428571429,-0.851142857142857,1.099,-0.127142857142857,459.6215,-0.711275,-0.4402,-0.59785,6.93066666666667,4.07888888888889,1.17211111111111,44.658,0.763471428571429,-0.607957142857143,0.0855285714285714,-0.545666666666667,0.0136666666666667,-0.396166666666667,3.38475,-0.708757142857143,-0.607842857142857,0.2621,-15.67075,-15.7925,6.76825,521.141,1,1,1,1
24-May-2018 12:30:12,594.888888888889,0.944257142857143,0.0409142857142857,0.221771428571429,-0.851142857142857,1.099,-0.127142857142857,459.6215,-0.711275,-0.4402,-0.59785,6.93066666666667,4.07888888888889,1.17211111111111,44.658,0.763471428571429,-0.607957142857143,0.0855285714285714,-0.545666666666667,0.0136666666666667,-0.396166666666667,3.38475,-0.708757142857143,-0.607842857142857,0.2621,-15.67075,-15.7925,6.76825,521.141,1,1,1,1
24-May-2018 12:30:12,594.888888888889,0.944257142857143,0.0409142857142857,0.221771428571429,-0.851142857142857,1.099,-0.127142857142857,459.6215,-0.711275,-0.4402,-0.59785,6.93066666666667,4.07888888888889,1.17211111111111,44.658,0.763471428571429,-0.607957142857143,0.0855285714285714,-0.545666666666667,0.0136666666666667,-0.396166666666667,3.38475,-0.708757142857143,-0.607842857142857,0.2621,-15.67075,-15.7925,6.76825,521.141,1,1,1,1
24-May-2018 12:30:12,594.888888888889,0.944257142857143,0.0409142857142857,0.221771428571429,-0.851142857142857,1.099,-0.127142857142857,459.6215,-0.711275,-0.4402,-0.59785,6.93066666666667,4.07888888888889,1.17211111111111,44.658,0.763471428571429,-0.607957142857143,0.0855285714285714,-0.545666666666667,0.0136666666666667,-0.396166666666667,3.38475,-0.708757142857143,-0.607842857142857,0.2621,-15.67075,-15.7925,6.76825,521.141,1,1,1,1
24-May-2018 12:30:13,440.333333333333,0.933628571428571,0.0171571428571429,0.2799,17.1725,4.70516666666667,8.31166666666667,479.178333333333,-0.70988,-0.45356,-0.57934,3.37588888888889,-2.75711111111111,4.47822222222222,44.244,0.76228,-0.6121,0.0631,-2.87166666666667,-1.03383333333333,0.042,3.3832,-0.70106,-0.5825,0.39154,7.2804,-7.6342,3.2926,598.328,1,1,1,1
24-May-2018 12:30:13,440.333333333333,0.933628571428571,0.0171571428571429,0.2799,17.1725,4.70516666666667,8.31166666666667,479.178333333333,-0.70988,-0.45356,-0.57934,3.37588888888889,-2.75711111111111,4.47822222222222,44.244,0.76228,-0.6121,0.0631,-2.87166666666667,-1.03383333333333,0.042,3.3832,-0.70106,-0.5825,0.39154,7.2804,-7.6342,3.2926,598.328,1,1,1,1
24-May-2018 12:30:13,440.333333333333,0.933628571428571,0.0171571428571429,0.2799,17.1725,4.70516666666667,8.31166666666667,479.178333333333,-0.70988,-0.45356,-0.57934,3.37588888888889,-2.75711111111111,4.47822222222222,44.244,0.76228,-0.6121,0.0631,-2.87166666666667,-1.03383333333333,0.042,3.3832,-0.70106,-0.5825,0.39154,7.2804,-7.6342,3.2926,598.328,1,1,1,1
24-May-2018 12:30:13,440.333333333333,0.933628571428571,0.0171571428571429,0.2799,17.1725,4.70516666666667,8.31166666666667,479.178333333333,-0.70988,-0.45356,-0.57934,3.37588888888889,-2.75711111111111,4.47822222222222,44.244,0.76228,-0.6121,0.0631,-2.87166666666667,-1.03383333333333,0.042,3.3832,-0.70106,-0.5825,0.39154,7.2804,-7.6342,3.2926,598.328,1,1,1,1
24-May-2018 12:30:14,324.4,0.933516666666667,-0.0258166666666667,0.269716666666667,-22.91125,-3.137625,7.1505,515.661,-0.72976,-0.44442,-0.56828,-0.382142857142857,-2.38342857142857,1.34271428571429,43.416,0.736916666666667,-0.637916666666667,0.0271,15.943125,-17.34375,3.36125,3.21933333333333,-0.5323,-0.68695,0.394183333333333,34.319,48.3131666666667,-40.9858333333333,612.5475,1,1,1,1
24-May-2018 12:30:14,324.4,0.933516666666667,-0.0258166666666667,0.269716666666667,-22.91125,-3.137625,7.1505,515.661,-0.72976,-0.44442,-0.56828,-0.382142857142857,-2.38342857142857,1.34271428571429,43.416,0.736916666666667,-0.637916666666667,0.0271,15.943125,-17.34375,3.36125,3.21933333333333,-0.5323,-0.68695,0.394183333333333,34.319,48.3131666666667,-40.9858333333333,612.5475,1,1,1,1
24-May-2018 12:30:14,324.4,0.933516666666667,-0.0258166666666667,0.269716666666667,-22.91125,-3.137625,7.1505,515.661,-0.72976,-0.44442,-0.56828,-0.382142857142857,-2.38342857142857,1.34271428571429,43.416,0.736916666666667,-0.637916666666667,0.0271,15.943125,-17.34375,3.36125,3.21933333333333,-0.5323,-0.68695,0.394183333333333,34.319,48.3131666666667,-40.9858333333333,612.5475,1,1,1,1
24-May-2018 12:30:14,324.4,0.933516666666667,-0.0258166666666667,0.269716666666667,-22.91125,-3.137625,7.1505,515.661,-0.72976,-0.44442,-0.56828,-0.382142857142857,-2.38342857142857,1.34271428571429,43.416,0.736916666666667,-0.637916666666667,0.0271,15.943125,-17.34375,3.36125,3.21933333333333,-0.5323,-0.68695,0.394183333333333,34.319,48.3131666666667,-40.9858333333333,612.5475,1,1,1,1
24-May-2018 12:30:15,-1123.3,0.956916666666667,-0.03,0.0512333333333333,-99.7,-6.068,-9.764,365.253333333333,-0.73865,-0.440375,-0.55105,2.56225,-2.466,2.27125,42.7952,0.699042857142857,-0.682785714285714,0.0957857142857143,-30.6468333333333,34.285,-8.40166666666667,3.18475,-0.688125,-0.643475,0.229775,5.7438,10.3656,-3.4878,457.8614,0,0,1,1
24-May-2018 12:30:15,-1123.3,0.956916666666667,-0.03,0.0512333333333333,-99.7,-6.068,-9.764,365.253333333333,-0.73865,-0.440375,-0.55105,2.56225,-2.466,2.27125,42.7952,0.699042857142857,-0.682785714285714,0.0957857142857143,-30.6468333333333,34.285,-8.40166666666667,3.18475,-0.688125,-0.643475,0.229775,5.7438,10.3656,-3.4878,457.8614,0,0,1,1
24-May-2018 12:30:15,-1123.3,0.956916666666667,-0.03,0.0512333333333333,-99.7,-6.068,-9.764,365.253333333333,-0.73865,-0.440375,-0.55105,2.56225,-2.466,2.27125,42.7952,0.699042857142857,-0.682785714285714,0.0957857142857143,-30.6468333333333,34.285,-8.40166666666667,3.18475,-0.688125,-0.643475,0.229775,5.7438,10.3656,-3.4878,457.8614,0,0,1,1
24-May-2018 12:30:15,-1123.3,0.956916666666667,-0.03,0.0512333333333333,-99.7,-6.068,-9.764,365.253333333333,-0.73865,-0.440375,-0.55105,2.56225,-2.466,2.27125,42.7952,0.699042857142857,-0.682785714285714,0.0957857142857143,-30.6468333333333,34.285,-8.40166666666667,3.18475,-0.688125,-0.643475,0.229775,5.7438,10.3656,-3.4878,457.8614,0,0,1,1
24-May-2018 12:30:16,-2048,0.957977777777778,-0.0379444444444444,0.110411111111111,1.43788888888889,2.94711111111111,-1.21911111111111,365.253333333333,-0.7464,-0.44618,-0.5417,4.731875,-0.25625,1.045875,42.64,0.797885714285714,-0.605014285714286,0.146385714285714,-19.5542857142857,22.7585714285714,-13.7444285714286,4.029,-0.69634,-0.56138,0.3707,-3.82414285714286,-0.662142857142857,3.41471428571429,537.193,1,1,1,1
24-May-2018 12:30:16,-2048,0.957977777777778,-0.0379444444444444,0.110411111111111,1.43788888888889,2.94711111111111,-1.21911111111111,365.253333333333,-0.7464,-0.44618,-0.5417,4.731875,-0.25625,1.045875,42.64,0.797885714285714,-0.605014285714286,0.146385714285714,-19.5542857142857,22.7585714285714,-13.7444285714286,4.029,-0.69634,-0.56138,0.3707,-3.82414285714286,-0.662142857142857,3.41471428571429,537.193,1,1,1,1
24-May-2018 12:30:16,-2048,0.957977777777778,-0.0379444444444444,0.110411111111111,1.43788888888889,2.94711111111111,-1.21911111111111,365.253333333333,-0.7464,-0.44618,-0.5417,4.731875,-0.25625,1.045875,42.64,0.797885714285714,-0.605014285714286,0.146385714285714,-19.5542857142857,22.7585714285714,-13.7444285714286,4.029,-0.69634,-0.56138,0.3707,-3.82414285714286,-0.662142857142857,3.41471428571429,537.193,1,1,1,1
24-May-2018 12:30:16,-2048,0.957977777777778,-0.0379444444444444,0.110411111111111,1.43788888888889,2.94711111111111,-1.21911111111111,365.253333333333,-0.7464,-0.44618,-0.5417,4.731875,-0.25625,1.045875,42.64,0.797885714285714,-0.605014285714286,0.146385714285714,-19.5542857142857,22.7585714285714,-13.7444285714286,4.029,-0.69634,-0.56138,0.3707,-3.82414285714286,-0.662142857142857,3.41471428571429,537.193,1,1,1,1
24-May-2018 12:30:17,-2022.85714285714,0.9216625,0.00045,0.2994875,8.31866666666667,10.4183333333333,0.197,365.253333333333,-0.752075,-0.44175,-0.533,0.408777777777778,-3.74522222222222,1.99888888888889,41.9,0.771071428571429,-0.5943,0.158771428571429,-7.9685,0.934833333333334,3.3645,4.017,-0.69865,-0.559866666666667,0.3715,3.5975,1.42266666666667,-3.61783333333333,520.0515,1,1,1,0
24-May-2018 12:30:17,-2022.85714285714,0.9216625,0.00045,0.2994875,8.31866666666667,10.4183333333333,0.197,365.253333333333,-0.752075,-0.44175,-0.533,0.408777777777778,-3.74522222222222,1.99888888888889,41.9,0.771071428571429,-0.5943,0.158771428571429,-7.9685,0.934833333333334,3.3645,4.017,-0.69865,-0.559866666666667,0.3715,3.5975,1.42266666666667,-3.61783333333333,520.0515,1,1,1,0
24-May-2018 12:30:17,-2022.85714285714,0.9216625,0.00045,0.2994875,8.31866666666667,10.4183333333333,0.197,365.253333333333,-0.752075,-0.44175,-0.533,0.408777777777778,-3.74522222222222,1.99888888888889,41.9,0.771071428571429,-0.5943,0.158771428571429,-7.9685,0.934833333333334,3.3645,4.017,-0.69865,-0.559866666666667,0.3715,3.5975,1.42266666666667,-3.61783333333333,520.0515,1,1,1,0
24-May-2018 12:30:17,-2022.85714285714,0.9216625,0.00045,0.2994875,8.31866666666667,10.4183333333333,0.197,365.253333333333,-0.752075,-0.44175,-0.533,0.408777777777778,-3.74522222222222,1.99888888888889,41.9,0.771071428571429,-0.5943,0.158771428571429,-7.9685,0.934833333333334,3.3645,4.017,-0.69865,-0.559866666666667,0.3715,3.5975,1.42266666666667,-3.61783333333333,520.0515,1,1,1,0
24-May-2018 12:30:18,-1599.44444444444,0.905,0.017425,0.370125,-3.731625,2.288,-2.146875,365.253333333333,-0.76354,-0.4364,-0.52474,1.243375,-2.80125,2.103625,41.9,0.734514285714286,-0.645928571428571,0.065,1.5875,-1.909,0.501333333333333,3.8085,-0.794133333333333,-0.578466666666667,0.3512,-43.5964285714286,-5.03471428571429,39.3641428571429,502.355,0,1,1,1
24-May-2018 12:30:18,-1599.44444444444,0.905,0.017425,0.370125,-3.731625,2.288,-2.146875,365.253333333333,-0.76354,-0.4364,-0.52474,1.243375,-2.80125,2.103625,41.9,0.734514285714286,-0.645928571428571,0.065,1.5875,-1.909,0.501333333333333,3.8085,-0.794133333333333,-0.578466666666667,0.3512,-43.5964285714286,-5.03471428571429,39.3641428571429,502.355,0,1,1,1
24-May-2018 12:30:18,-1599.44444444444,0.905,0.017425,0.370125,-3.731625,2.288,-2.146875,365.253333333333,-0.76354,-0.4364,-0.52474,1.243375,-2.80125,2.103625,41.9,0.734514285714286,-0.645928571428571,0.065,1.5875,-1.909,0.501333333333333,3.8085,-0.794133333333333,-0.578466666666667,0.3512,-43.5964285714286,-5.03471428571429,39.3641428571429,502.355,0,1,1,1
24-May-2018 12:30:18,-1599.44444444444,0.905,0.017425,0.370125,-3.731625,2.288,-2.146875,365.253333333333,-0.76354,-0.4364,-0.52474,1.243375,-2.80125,2.103625,41.9,0.734514285714286,-0.645928571428571,0.065,1.5875,-1.909,0.501333333333333,3.8085,-0.794133333333333,-0.578466666666667,0.3512,-43.5964285714286,-5.03471428571429,39.3641428571429,502.355,0,1,1,1
24-May-2018 12:30:19,-1174.28571428571,0.9182875,0.0211375,0.329375,-4.45842857142857,-6.07714285714286,-0.826571428571429,351.369,-0.7687,-0.4371,-0.51332,2.88055555555556,0.456555555555556,1.72166666666667,41.203,0.741785714285714,-0.637485714285714,0.0951857142857143,-3.6475,1.70866666666667,-1.30666666666667,3.79925,-0.4204,-0.2989,0.187866666666667,-82.0615,45.7326666666667,5.88416666666667,427.92075,1,1,1,1
24-May-2018 12:30:19,-1174.28571428571,0.9182875,0.0211375,0.329375,-4.45842857142857,-6.07714285714286,-0.826571428571429,351.369,-0.7687,-0.4371,-0.51332,2.88055555555556,0.456555555555556,1.72166666666667,41.203,0.741785714285714,-0.637485714285714,0.0951857142857143,-3.6475,1.70866666666667,-1.30666666666667,3.79925,-0.4204,-0.2989,0.187866666666667,-82.0615,45.7326666666667,5.88416666666667,427.92075,1,1,1,1
24-May-2018 12:30:19,-1174.28571428571,0.9182875,0.0211375,0.329375,-4.45842857142857,-6.07714285714286,-0.826571428571429,351.369,-0.7687,-0.4371,-0.51332,2.88055555555556,0.456555555555556,1.72166666666667,41.203,0.741785714285714,-0.637485714285714,0.0951857142857143,-3.6475,1.70866666666667,-1.30666666666667,3.79925,-0.4204,-0.2989,0.187866666666667,-82.0615,45.7326666666667,5.88416666666667,427.92075,1,1,1,1
24-May-2018 12:30:19,-1174.28571428571,0.9182875,0.0211375,0.329375,-4.45842857142857,-6.07714285714286,-0.826571428571429,351.369,-0.7687,-0.4371,-0.51332,2.88055555555556,0.456555555555556,1.72166666666667,41.203,0.741785714285714,-0.637485714285714,0.0951857142857143,-3.6475,1.70866666666667,-1.30666666666667,3.79925,-0.4204,-0.2989,0.187866666666667,-82.0615,45.7326666666667,5.88416666666667,427.92075,1,1,1,1
24-May-2018 12:30:20,-860,0.46055,-0.035475,-0.174025,-6.32966666666667,-86.4301666666667,9.80266666666667,342.914,-0.767,-0.4411,-0.51728,2.50733333333333,4.58588888888889,3.35377777777778,41.203,0.7037125,-0.320925,0.311375,-21.3822857142857,31.6131428571429,-9.126,4.02933333333333,-0.398366666666667,-0.349333333333333,-0.14855,-45.0846,15.0752,3.7208,347.888,1,1,1,1
24-May-2018 12:30:20,-860,0.46055,-0.035475,-0.174025,-6.32966666666667,-86.4301666666667,9.80266666666667,342.914,-0.767,-0.4411,-0.51728,2.50733333333333,4.58588888888889,3.35377777777778,41.203,0.7037125,-0.320925,0.311375,-21.3822857142857,31.6131428571429,-9.126,4.02933333333333,-0.398366666666667,-0.349333333333333,-0.14855,-45.0846,15.0752,3.7208,347.888,1,1,1,1
24-May-2018 12:30:20,-860,0.46055,-0.035475,-0.174025,-6.32966666666667,-86.4301666666667,9.80266666666667,342.914,-0.767,-0.4411,-0.51728,2.50733333333333,4.58588888888889,3.35377777777778,41.203,0.7037125,-0.320925,0.311375,-21.3822857142857,31.6131428571429,-9.126,4.02933333333333,-0.398366666666667,-0.349333333333333,-0.14855,-45.0846,15.0752,3.7208,347.888,1,1,1,1
24-May-2018 12:30:20,-860,0.46055,-0.035475,-0.174025,-6.32966666666667,-86.4301666666667,9.80266666666667,342.914,-0.767,-0.4411,-0.51728,2.50733333333333,4.58588888888889,3.35377777777778,41.203,0.7037125,-0.320925,0.311375,-21.3822857142857,31.6131428571429,-9.126,4.02933333333333,-0.398366666666667,-0.349333333333333,-0.14855,-45.0846,15.0752,3.7208,347.888,1,1,1,1
24-May-2018 12:30:21,-600.111111111111,0.3371375,-0.0291625,-0.3747125,11.7166666666667,-222.296666666667,6.24583333333333,337.576,-0.763,-0.422275,-0.530075,-6.36444444444444,4.54644444444444,4.21411111111111,41.203,0.475228571428571,-0.196657142857143,0.318828571428571,-12.922,-5.318,9.932,4.159,-0.6777,-0.30334,-0.3382,-105.2182,-42.2796,42.8062,331.334,1,1,1,1
24-May-2018 12:30:21,-600.111111111111,0.3371375,-0.0291625,-0.3747125,11.7166666666667,-222.296666666667,6.24583333333333,337.576,-0.763,-0.422275,-0.530075,-6.36444444444444,4.54644444444444,4.21411111111111,41.203,0.475228571428571,-0.196657142857143,0.318828571428571,-12.922,-5.318,9.932,4.159,-0.6777,-0.30334,-0.3382,-105.2182,-42.2796,42.8062,331.334,1,1,1,1
24-May-2018 12:30:21,-600.111111111111,0.3371375,-0.0291625,-0.3747125,11.7166666666667,-222.296666666667,6.24583333333333,337.576,-0.763,-0.422275,-0.530075,-6.36444444444444,4.54644444444444,4.21411111111111,41.203,0.475228571428571,-0.196657142857143,0.318828571428571,-12.922,-5.318,9.932,4.159,-0.6777,-0.30334,-0.3382,-105.2182,-42.2796,42.8062,331.334,1,1,1,1
24-May-2018 12:30:21,-600.111111111111,0.3371375,-0.0291625,-0.3747125,11.7166666666667,-222.296666666667,6.24583333333333,337.576,-0.763,-0.422275,-0.530075,-6.36444444444444,4.54644444444444,4.21411111111111,41.203,0.475228571428571,-0.196657142857143,0.318828571428571,-12.922,-5.318,9.932,4.159,-0.6777,-0.30334,-0.3382,-105.2182,-42.2796,42.8062,331.334,1,1,1,1
24-May-2018 12:30:22,71.4,0.180285714285714,-0.0244428571428571,-0.176757142857143,-19.39,263.213333333333,-28.6266666666667,239.5665,-0.76085,-0.414575,-0.548825,0.408833333333333,4.796,-0.0186666666666667,42.444,0.667466666666667,-0.257933333333333,0.541516666666667,5.40571428571429,-25.64,15.9928571428571,3.91,-0.56135,-0.1281,-0.16665,38.9374285714286,-9.51042857142857,-1.32414285714285,351.1455,0,1,1,1
24-May-2018 12:30:22,71.4,0.180285714285714,-0.0244428571428571,-0.176757142857143,-19.39,263.213333333333,-28.6266666666667,239.5665,-0.76085,-0.414575,-0.548825,0.408833333333333,4.796,-0.0186666666666667,42.444,0.667466666666667,-0.257933333333333,0.541516666666667,5.40571428571429,-25.64,15.9928571428571,3.91,-0.56135,-0.1281,-0.16665,38.9374285714286,-9.51042857142857,-1.32414285714285,351.1455,0,1,1,1
24-May-2018 12:30:22,71.4,0.180285714285714,-0.0244428571428571,-0.176757142857143,-19.39,263.213333333333,-28.6266666666667,239.5665,-0.76085,-0.414575,-0.548825,0.408833333333333,4.796,-0.0186666666666667,42.444,0.667466666666667,-0.257933333333333,0.541516666666667,5.40571428571429,-25.64,15.9928571428571,3.91,-0.56135,-0.1281,-0.16665,38.9374285714286,-9.51042857142857,-1.32414285714285,351.1455,0,1,1,1
24-May-2018 12:30:22,71.4,0.180285714285714,-0.0244428571428571,-0.176757142857143,-19.39,263.213333333333,-28.6266666666667,239.5665,-0.76085,-0.414575,-0.548825,0.408833333333333,4.796,-0.0186666666666667,42.444,0.667466666666667,-0.257933333333333,0.541516666666667,5.40571428571429,-25.64,15.9928571428571,3.91,-0.56135,-0.1281,-0.16665,38.9374285714286,-9.51042857142857,-1.32414285714285,351.1455,0,1,1,1
