TIME,HELMET_RAW,BELT_ACC_X,BELT_ACC_Y,BELT_ACC_Z,BELT_ANG_X,BELT_ANG_Y,BELT_ANG_Z,BELT_LUMINOSITY,NECK_ACC_X,NECK_ACC_Y,NECK_ACC_Z,NECK_ANG_X,NECK_ANG_Y,NECK_ANG_Z,NECK_LUMINOSITY,PCKT_ACC_X,PCKT_ACC_Y,PCKT_ACC_Z,PCKT_ANG_X,PCKT_ANG_Y,PCKT_ANG_Z,PCKT_LUMINOSITY,WRST_ACC_X,WRST_ACC_Y,WRST_ACC_Z,WRST_ANG_X,WRST_ANG_Y,WRST_ANG_Z,WRST_LUMINOSITY,IR_1,IR_2,IR_3,IR_4
24-May-2018 12:21:08,131.111111111111,0.947288888888889,0.0911888888888889,-0.204522222222222,-18.32125,-7.55575,4.177375,287.435,-0.905575,0.08065,-0.5004,1.18588888888889,-0.559555555555556,0.630555555555556,54.409,0.88515,-0.30245,0.2413,30.33,13.473,-2.33771428571429,3.875,-0.936133333333333,-0.125416666666667,-0.20325,140.695,29.378,-51.2804,523.978,1,1,1,1
24-May-2018 12:21:08,131.111111111111,0.947288888888889,0.0911888888888889,-0.204522222222222,-18.32125,-7.55575,4.177375,287.435,-0.905575,0.08065,-0.5004,1.18588888888889,-0.559555555555556,0.630555555555556,54.409,0.88515,-0.30245,0.2413,30.33,13.473,-2.33771428571429,3.875,-0.936133333333333,-0.125416666666667,-0.20325,140.695,29.378,-51.2804,523.978,1,1,1,1
24-May-2018 12:21:08,131.111111111111,0.947288888888889,0.0911888888888889,-0.204522222222222,-18.32125,-7.55575,4.177375,287.435,-0.905575,0.08065,-0.5004,1.18588888888889,-0.559555555555556,0.630555555555556,54.409,0.88515,-0.30245,0.2413,30.33,13.473,-2.33771428571429,3.875,-0.936133333333333,-0.125416666666667,-0.20325,140.695,29.378,-51.2804,523.978,1,1,1,1
24-May-2018 12:21:08,131.111111111111,0.947288888888889,0.0911888888888889,-0.204522222222222,-18.32125,-7.55575,4.177375,0,-0.905575,0.08065,-0.5004,1.18588888888889,-0.559555555555556,0.630555555555556,54.409,0.88515,-0.30245,0.2413,30.33,13.473,-2.33771428571429,3.875,-0.936133333333333,-0.125416666666667,-0.20325,140.695,29.378,-51.2804,0,1,1,1,1
24-May-2018 12:21:09,110,0.869533333333333,0.0823166666666667,-0.2852,-7.092,5.571,-5.8828,234.435,-0.90592,0.07936,-0.49722,0.401888888888889,-0.133888888888889,0.706222222222222,53.559,0.93202,-0.3457,0.14546,-41.5666666666667,-39.2333333333333,18.8966666666667,4.3965,-0.81845,-0.53075,-0.0912166666666667,9.65142857142858,-20.1558571428571,14.068,52.7786666666667,1,1,1,1
24-May-2018 12:21:09,110,0.869533333333333,0.0823166666666667,-0.2852,-7.092,5.571,-5.8828,234.435,-0.90592,0.07936,-0.49722,0.401888888888889,-0.133888888888889,0.706222222222222,53.559,0.93202,-0.3457,0.14546,-41.5666666666667,-39.2333333333333,18.8966666666667,4.3965,-0.81845,-0.53075,-0.0912166666666667,9.65142857142858,-20.1558571428571,14.068,52.7786666666667,1,1,1,1
24-May-2018 12:21:09,110,0.869533333333333,0.0823166666666667,-0.2852,-7.092,5.571,-5.8828,234.435,-0.90592,0.07936,-0.49722,0.401888888888889,-0.133888888888889,0.706222222222222,53.559,0.93202,-0.3457,0.14546,-41.5666666666667,-39.2333333333333,18.8966666666667,4.3965,-0.81845,-0.53075,-0.0912166666666667,9.65142857142858,-20.1558571428571,14.068,52.7786666666667,1,1,1,1
24-May-2018 12:21:09,110,0.869533333333333,0.0823166666666667,-0.2852,-7.092,5.571,-5.8828,234.435,-0.90592,0.07936,-0.49722,0.401888888888889,-0.133888888888889,0.706222222222222,53.559,0.93202,-0.3457,0.14546,-41.5666666666667,-39.2333333333333,18.8966666666667,4.3965,-0.81845,-0.53075,-0.0912166666666667,9.65142857142858,-20.1558571428571,14.068,52.7786666666667,1,1,1,1
24-May-2018 12:21:10,94.2,0.9113,0.06624,-0.34402,91.954,-1.054,-21.924,193.2165,-0.906525,0.08045,-0.49825,0.393444444444444,-0.079,0.0967777777777778,53.3265,0.82405,-0.401966666666667,0.214833333333333,61.8242857142857,-9.17285714285714,19.0471428571429,3.5358,-0.746275,-0.61745,-0.1637,-11.4022857142857,-5.88828571428571,-4.61657142857143,5.547,1,0,1,1
24-May-2018 12:21:10,94.2,0.9113,0.06624,-0.34402,91.954,-1.054,-21.924,193.2165,-0.906525,0.08045,-0.49825,0.393444444444444,-0.079,0.0967777777777778,53.3265,0.82405,-0.401966666666667,0.214833333333333,61.8242857142857,-9.17285714285714,19.0471428571429,3.5358,-0.746275,-0.61745,-0.1637,-11.4022857142857,-5.88828571428571,-4.61657142857143,5.547,1,0,1,1
24-May-2018 12:21:10,94.2,0.9113,0.06624,-0.34402,91.954,-1.054,-21.924,193.2165,-0.906525,0.08045,-0.49825,0.393444444444444,-0.079,0.0967777777777778,53.3265,0.82405,-0.401966666666667,0.214833333333333,61.8242857142857,-9.17285714285714,19.0471428571429,3.5358,-0.746275,-0.61745,-0.1637,-11.4022857142857,-5.88828571428571,-4.61657142857143,5.547,1,0,1,1
24-May-2018 12:21:10,94.2,0.9113,0.06624,-0.34402,91.954,-1.054,-21.924,193.2165,-0.906525,0.08045,-0.49825,0.393444444444444,-0.079,0.0967777777777778,53.3265,0.82405,-0.401966666666667,0.214833333333333,61.8242857142857,-9.17285714285714,19.0471428571429,3.5358,-0.746275,-0.61745,-0.1637,-11.4022857142857,-5.88828571428571,-4.61657142857143,5.547,1,0,1,1
24-May-2018 12:21:11,81.3333333333333,0.893914285714286,-0.0254571428571429,-0.329171428571429,62.17,-1.13728571428571,-18.8495714285714,194.693666666667,-0.90754,0.08048,-0.49514,-0.206333333333333,0.441777777777778,-0.235666666666667,53.094,0.88562,-0.41014,0.16088,25.974,-24.48,-0.1742,5.0622,-0.793466666666667,-0.543033333333333,-0.0912333333333333,-103.15075,-53.58225,-9.7715,6.457,1,1,1,1
24-May-2018 12:21:11,81.3333333333333,0.893914285714286,-0.0254571428571429,-0.329171428571429,62.17,-1.13728571428571,-18.8495714285714,194.693666666667,-0.90754,0.08048,-0.49514,-0.206333333333333,0.441777777777778,-0.235666666666667,53.094,0.88562,-0.41014,0.16088,25.974,-24.48,-0.1742,5.0622,-0.793466666666667,-0.543033333333333,-0.0912333333333333,-103.15075,-53.58225,-9.7715,6.457,1,1,1,1
24-May-2018 12:21:11,81.3333333333333,0.893914285714286,-0.0254571428571429,-0.329171428571429,62.17,-1.13728571428571,-18.8495714285714,194.693666666667,-0.90754,0.08048,-0.49514,-0.206333333333333,0.441777777777778,-0.235666666666667,53.094,0.88562,-0.41014,0.16088,25.974,-24.48,-0.1742,5.0622,-0.793466666666667,-0.543033333333333,-0.0912333333333333,-103.15075,-53.58225,-9.7715,6.457,1,1,1,1
24-May-2018 12:21:11,81.3333333333333,0.893914285714286,-0.0254571428571429,-0.329171428571429,62.17,-1.13728571428571,-18.8495714285714,194.693666666667,-0.90754,0.08048,-0.49514,-0.206333333333333,0.441777777777778,-0.235666666666667,53.094,0.88562,-0.41014,0.16088,25.974,-24.48,-0.1742,5.0622,-0.793466666666667,-0.543033333333333,-0.0912333333333333,-103.15075,-53.58225,-9.7715,6.457,1,1,1,1
24-May-2018 12:21:12,72.4285714285714,0.855066666666667,0.0736666666666667,-0.2689,15.82,1.2845,-14.92,242.173,-0.9102,0.0782666666666667,-0.495033333333333,0.5276,0.5028,0.9394,53.094,0.90824,-0.30152,0.26808,20.7933333333333,40.2166666666667,8.61666666666667,4.858,-0.8743,-0.3884,-0.14825,3.323,-10.381,-10.76225,7.976,1,1,1,1
24-May-2018 12:21:12,72.4285714285714,0.855066666666667,0.0736666666666667,-0.2689,15.82,1.2845,-14.92,242.173,-0.9102,0.0782666666666667,-0.495033333333333,0.5276,0.5028,0.9394,53.094,0.90824,-0.30152,0.26808,20.7933333333333,40.2166666666667,8.61666666666667,4.858,-0.8743,-0.3884,-0.14825,3.323,-10.381,-10.76225,7.976,1,1,1,1
24-May-2018 12:21:12,72.4285714285714,0.855066666666667,0.0736666666666667,-0.2689,15.82,1.2845,-14.92,242.173,-0.9102,0.0782666666666667,-0.495033333333333,0.5276,0.5028,0.9394,53.094,0.90824,-0.30152,0.26808,20.7933333333333,40.2166666666667,8.61666666666667,4.858,-0.8743,-0.3884,-0.14825,3.323,-10.381,-10.76225,7.976,1,1,1,1
24-May-2018 12:21:12,72.4285714285714,0.855066666666667,0.0736666666666667,-0.2689,15.82,1.2845,-14.92,242.173,-0.9102,0.0782666666666667,-0.495033333333333,0.5276,0.5028,0.9394,53.094,0.90824,-0.30152,0.26808,20.7933333333333,40.2166666666667,8.61666666666667,4.858,-0.8743,-0.3884,-0.14825,3.323,-10.381,-10.76225,7.976,1,1,1,1
24-May-2018 12:21:13,67.7,0.92835,0.17985,-0.177075,33.3775,7.7285,-7.905,243.662,-0.90645,0.07985,-0.49235,-0.8014,-0.2894,1.3048,53.094,0.83505,-0.23825,0.53185,4.8,-30.7666666666667,10.528,5.7915,-0.72994,-0.5579,-0.02002,-19.0853333333333,-20.5083333333333,5.34566666666667,5.565,1,1,1,1
24-May-2018 12:21:13,67.7,0.92835,0.17985,-0.177075,33.3775,7.7285,-7.905,243.662,-0.90645,0.07985,-0.49235,-0.8014,-0.2894,1.3048,53.094,0.83505,-0.23825,0.53185,4.8,-30.7666666666667,10.528,5.7915,-0.72994,-0.5579,-0.02002,-19.0853333333333,-20.5083333333333,5.34566666666667,5.565,1,1,1,1
24-May-2018 12:21:13,67.7,0.92835,0.17985,-0.177075,33.3775,7.7285,-7.905,243.662,-0.90645,0.07985,-0.49235,-0.8014,-0.2894,1.3048,53.094,0.83505,-0.23825,0.53185,4.8,-30.7666666666667,10.528,5.7915,-0.72994,-0.5579,-0.02002,-19.0853333333333,-20.5083333333333,5.34566666666667,5.565,1,1,1,1
24-May-2018 12:21:13,67.7,0.92835,0.17985,-0.177075,33.3775,7.7285,-7.905,243.662,-0.90645,0.07985,-0.49235,-0.8014,-0.2894,1.3048,53.094,0.83505,-0.23825,0.53185,4.8,-30.7666666666667,10.528,5.7915,-0.72994,-0.5579,-0.02002,-19.0853333333333,-20.5083333333333,5.34566666666667,5.565,1,1,1,1
24-May-2018 12:21:14,62.5714285714286,0.929116666666667,0.0795,-0.306766666666667,2.578875,-3.038125,4.214,288.81975,-0.90812,0.08162,-0.494,1.647,0.813111111111111,0.211333333333333,53.559,0.905457142857143,-0.428342857142857,0.116114285714286,-6.19271428571429,-9.95,0.918428571428572,7.01366666666667,-0.779957142857143,-0.562371428571429,-0.120385714285714,30.3048,13.9392,-0.5612,4.02833333333333,1,1,1,1
24-May-2018 12:21:14,62.5714285714286,0.929116666666667,0.0795,-0.306766666666667,2.578875,-3.038125,4.214,288.81975,-0.90812,0.08162,-0.494,1.647,0.813111111111111,0.211333333333333,53.559,0.905457142857143,-0.428342857142857,0.116114285714286,-6.19271428571429,-9.95,0.918428571428572,7.01366666666667,-0.779957142857143,-0.562371428571429,-0.120385714285714,30.3048,13.9392,-0.5612,4.02833333333333,1,1,1,1
24-May-2018 12:21:14,62.5714285714286,0.929116666666667,0.0795,-0.306766666666667,2.578875,-3.038125,4.214,288.81975,-0.90812,0.08162,-0.494,1.647,0.813111111111111,0.211333333333333,53.559,0.905457142857143,-0.428342857142857,0.116114285714286,-6.19271428571429,-9.95,0.918428571428572,7.01366666666667,-0.779957142857143,-0.562371428571429,-0.120385714285714,30.3048,13.9392,-0.5612,4.02833333333333,1,1,1,1
24-May-2018 12:21:14,62.5714285714286,0.929116666666667,0.0795,-0.306766666666667,2.578875,-3.038125,4.214,288.81975,-0.90812,0.08162,-0.494,1.647,0.813111111111111,0.211333333333333,53.559,0.905457142857143,-0.428342857142857,0.116114285714286,-6.19271428571429,-9.95,0.918428571428572,7.01366666666667,-0.779957142857143,-0.562371428571429,-0.120385714285714,30.3048,13.9392,-0.5612,4.02833333333333,1,1,1,1
24-May-2018 12:21:15,59.5,0.913333333333333,0.11805,-0.289833333333333,40.255,5.67075,4.026,275.313,-0.9065,0.0844666666666667,-0.496433333333333,0.032,0.313125,1.6615,53.559,0.8629,-0.280966666666667,0.434566666666667,-13.175,-39.25,14.8775,7.546,-0.817275,-0.539525,-0.037125,12.30175,7.5915,-1.753,4.477,1,1,1,1
24-May-2018 12:21:15,59.5,0.913333333333333,0.11805,-0.289833333333333,40.255,5.67075,4.026,275.313,-0.9065,0.0844666666666667,-0.496433333333333,0.032,0.313125,1.6615,53.559,0.8629,-0.280966666666667,0.434566666666667,-13.175,-39.25,14.8775,7.546,-0.817275,-0.539525,-0.037125,12.30175,7.5915,-1.753,4.477,1,1,1,1
24-May-2018 12:21:15,59.5,0.913333333333333,0.11805,-0.289833333333333,40.255,5.67075,4.026,275.313,-0.9065,0.0844666666666667,-0.496433333333333,0.032,0.313125,1.6615,53.559,0.8629,-0.280966666666667,0.434566666666667,-13.175,-39.25,14.8775,7.546,-0.817275,-0.539525,-0.037125,12.30175,7.5915,-1.753,4.477,1,1,1,1
24-May-2018 12:21:15,59.5,0.913333333333333,0.11805,-0.289833333333333,40.255,5.67075,4.026,275.313,-0.9065,0.0844666666666667,-0.496433333333333,0.032,0.313125,1.6615,53.559,0.8629,-0.280966666666667,0.434566666666667,-13.175,-39.25,14.8775,7.546,-0.817275,-0.539525,-0.037125,12.30175,7.5915,-1.753,4.477,1,1,1,1
24-May-2018 12:21:16,57.5,0.8486625,0.140975,-0.3488875,-91.5542857142857,-5.89314285714286,29.292,396.386,-0.90794,0.08654,-0.49256,1.09777777777778,-0.200777777777778,0.217555555555555,53.559,0.8898,-0.362016666666667,0.0643333333333333,-83.34,17.954,-5.4176,8.1905,-0.78098,-0.60236,0.02738,85.65525,58.01825,-3.76525,7.7505,1,1,1,1
24-May-2018 12:21:16,57.5,0.8486625,0.140975,-0.3488875,-91.5542857142857,-5.89314285714286,29.292,396.386,-0.90794,0.08654,-0.49256,1.09777777777778,-0.200777777777778,0.217555555555555,53.559,0.8898,-0.362016666666667,0.0643333333333333,-83.34,17.954,-5.4176,8.1905,-0.78098,-0.60236,0.02738,85.65525,58.01825,-3.76525,7.7505,1,1,1,1
24-May-2018 12:21:16,57.5,0.8486625,0.140975,-0.3488875,-91.5542857142857,-5.89314285714286,29.292,396.386,-0.90794,0.08654,-0.49256,1.09777777777778,-0.200777777777778,0.217555555555555,53.559,0.8898,-0.362016666666667,0.0643333333333333,-83.34,17.954,-5.4176,8.1905,-0.78098,-0.60236,0.02738,85.65525,58.01825,-3.76525,7.7505,1,1,1,1
24-May-2018 12:21:16,57.5,0.8486625,0.140975,-0.3488875,-91.5542857142857,-5.89314285714286,29.292,396.386,-0.90794,0.08654,-0.49256,1.09777777777778,-0.200777777777778,0.217555555555555,53.559,0.8898,-0.362016666666667,0.0643333333333333,-83.34,17.954,-5.4176,8.1905,-0.78098,-0.60236,0.02738,85.65525,58.01825,-3.76525,7.7505,1,1,1,1
24-May-2018 12:21:17,55.4285714285714,0.924283333333333,0.106033333333333,-0.2071,-72.575,-5.44816666666667,13.5776666666667,396.386,-0.911433333333333,0.0843333333333333,-0.491333333333333,1.5254,-0.0110000000000001,-0.3138,54.0203333333333,0.8609,-0.1691,0.542516666666667,-36.42,29.0133333333333,-16.8986666666667,2.9124,-0.78962,-0.59314,-0.02974,38.6584,18.8902,-2.2684,5.05833333333333,1,1,1,1
24-May-2018 12:21:17,55.4285714285714,0.924283333333333,0.106033333333333,-0.2071,-72.575,-5.44816666666667,13.5776666666667,396.386,-0.911433333333333,0.0843333333333333,-0.491333333333333,1.5254,-0.0110000000000001,-0.3138,54.0203333333333,0.8609,-0.1691,0.542516666666667,-36.42,29.0133333333333,-16.8986666666667,2.9124,-0.78962,-0.59314,-0.02974,38.6584,18.8902,-2.2684,5.05833333333333,1,1,1,1
24-May-2018 12:21:17,55.4285714285714,0.924283333333333,0.106033333333333,-0.2071,-72.575,-5.44816666666667,13.5776666666667,396.386,-0.911433333333333,0.0843333333333333,-0.491333333333333,1.5254,-0.0110000000000001,-0.3138,54.0203333333333,0.8609,-0.1691,0.542516666666667,-36.42,29.0133333333333,-16.8986666666667,2.9124,-0.78962,-0.59314,-0.02974,38.6584,18.8902,-2.2684,5.05833333333333,1,1,1,1
24-May-2018 12:21:17,55.4285714285714,0.924283333333333,0.106033333333333,-0.2071,-72.575,-5.44816666666667,13.5776666666667,396.386,-0.911433333333333,0.0843333333333333,-0.491333333333333,1.5254,-0.0110000000000001,-0.3138,54.0203333333333,0.8609,-0.1691,0.542516666666667,-36.42,29.0133333333333,-16.8986666666667,2.9124,-0.78962,-0.59314,-0.02974,38.6584,18.8902,-2.2684,5.05833333333333,1,1,1,1
24-May-2018 12:21:18,54.625,0.912285714285714,0.179585714285714,-0.222228571428571,-22.6477777777778,0.0470000000000001,10.8898888888889,396.386,-0.907125,0.0804,-0.4917,0.2146,0.5632,-0.966,54.251,0.8458375,-0.426575,0.134075,-59.4666666666667,-2.344,3.67783333333333,3.152,-0.77678,-0.56082,-0.08758,20.244,8.244,2.183,5.05833333333333,1,1,1,1
24-May-2018 12:21:18,54.625,0.912285714285714,0.179585714285714,-0.222228571428571,-22.6477777777778,0.0470000000000001,10.8898888888889,396.386,-0.907125,0.0804,-0.4917,0.2146,0.5632,-0.966,54.251,0.8458375,-0.426575,0.134075,-59.4666666666667,-2.344,3.67783333333333,3.152,-0.77678,-0.56082,-0.08758,20.244,8.244,2.183,5.05833333333333,1,1,1,1
24-May-2018 12:21:18,54.625,0.912285714285714,0.179585714285714,-0.222228571428571,-22.6477777777778,0.0470000000000001,10.8898888888889,396.386,-0.907125,0.0804,-0.4917,0.2146,0.5632,-0.966,54.251,0.8458375,-0.426575,0.134075,-59.4666666666667,-2.344,3.67783333333333,3.152,-0.77678,-0.56082,-0.08758,20.244,8.244,2.183,5.05833333333333,1,1,1,1
24-May-2018 12:21:18,54.625,0.912285714285714,0.179585714285714,-0.222228571428571,-22.6477777777778,0.0470000000000001,10.8898888888889,396.386,-0.907125,0.0804,-0.4917,0.2146,0.5632,-0.966,54.251,0.8458375,-0.426575,0.134075,-59.4666666666667,-2.344,3.67783333333333,3.152,-0.77678,-0.56082,-0.08758,20.244,8.244,2.183,0,1,1,1,1
24-May-2018 12:21:19,53.5,0.9038,0.121866666666667,-0.250433333333333,-2.59722222222222,-2.625,-0.197222222222222,396.386,-0.90775,0.077325,-0.4926,1.608875,0.544125,1.311,54.251,0.8916,-0.333975,0.423875,4.07250000000001,40.445,-14.71875,2.818,-0.74535,-0.56465,-0.067275,4.9636,10.5,-5.0244,6.482,1,0,1,1
24-May-2018 12:21:19,53.5,0.9038,0.121866666666667,-0.250433333333333,-2.59722222222222,-2.625,-0.197222222222222,396.386,-0.90775,0.077325,-0.4926,1.608875,0.544125,1.311,54.251,0.8916,-0.333975,0.423875,4.07250000000001,40.445,-14.71875,2.818,-0.74535,-0.56465,-0.067275,4.9636,10.5,-5.0244,6.482,1,0,1,1
24-May-2018 12:21:19,53.5,0.9038,0.121866666666667,-0.250433333333333,-2.59722222222222,-2.625,-0.197222222222222,396.386,-0.90775,0.077325,-0.4926,1.608875,0.544125,1.311,54.251,0.8916,-0.333975,0.423875,4.07250000000001,40.445,-14.71875,2.818,-0.74535,-0.56465,-0.067275,4.9636,10.5,-5.0244,6.482,1,0,1,1
24-May-2018 12:21:19,53.5,0.9038,0.121866666666667,-0.250433333333333,-2.59722222222222,-2.625,-0.197222222222222,396.386,-0.90775,0.077325,-0.4926,1.608875,0.544125,1.311,54.251,0.8916,-0.333975,0.423875,4.07250000000001,40.445,-14.71875,2.818,-0.74535,-0.56465,-0.067275,4.9636,10.5,-5.0244,6.482,1,0,1,1
24-May-2018 12:21:20,52.8,0.863475,0.015175,-0.311875,-0.355,7.467,2.16833333333333,263.948,-0.90712,0.07872,-0.4932,0.631666666666666,0.665333333333333,0.271333333333333,54.2243333333333,0.9039,-0.436275,0.056125,-12.846,15.5426,-3.7908,3.4484,-0.944766666666667,-0.4215,-0.4407,-1.250125,-8.91775,6.17375,6.3198,1,1,1,1
24-May-2018 12:21:20,52.8,0.863475,0.015175,-0.311875,-0.355,7.467,2.16833333333333,263.948,-0.90712,0.07872,-0.4932,0.631666666666666,0.665333333333333,0.271333333333333,54.2243333333333,0.9039,-0.436275,0.056125,-12.846,15.5426,-3.7908,3.4484,-0.944766666666667,-0.4215,-0.4407,-1.250125,-8.91775,6.17375,6.3198,1,1,1,1
24-May-2018 12:21:20,52.8,0.863475,0.015175,-0.311875,-0.355,7.467,2.16833333333333,263.948,-0.90712,0.07872,-0.4932,0.631666666666666,0.665333333333333,0.271333333333333,54.2243333333333,0.9039,-0.436275,0.056125,-12.846,15.5426,-3.7908,3.4484,-0.944766666666667,-0.4215,-0.4407,-1.250125,-8.91775,6.17375,6.3198,1,1,1,1
24-May-2018 12:21:20,52.8,0.863475,0.015175,-0.311875,-0.355,7.467,2.16833333333333,263.948,-0.90712,0.07872,-0.4932,0.631666666666666,0.665333333333333,0.271333333333333,54.2243333333333,0.9039,-0.436275,0.056125,-12.846,15.5426,-3.7908,3.4484,-0.944766666666667,-0.4215,-0.4407,-1.250125,-8.91775,6.17375,6.3198,1,1,1,1
24-May-2018 12:21:21,52.125,0.936533333333333,0.08005,-0.301666666666667,39.34,6.6206,-7.546,258.474428571429,-0.908875,0.075475,-0.49325,0.65,0.41325,-0.36325,54.171,0.825866666666667,-0.4689,0.146716666666667,85.0983333333333,-30.505,24.127,5.76333333333333,-0.89745,-0.17725,-0.217525,-162.496666666667,-30.4776666666667,-4.61383333333333,153.5838,1,1,1,1
24-May-2018 12:21:21,52.125,0.936533333333333,0.08005,-0.301666666666667,39.34,6.6206,-7.546,258.474428571429,-0.908875,0.075475,-0.49325,0.65,0.41325,-0.36325,54.171,0.825866666666667,-0.4689,0.146716666666667,85.0983333333333,-30.505,24.127,5.76333333333333,-0.89745,-0.17725,-0.217525,-162.496666666667,-30.4776666666667,-4.61383333333333,153.5838,1,1,1,1
24-May-2018 12:21:21,52.125,0.936533333333333,0.08005,-0.301666666666667,39.34,6.6206,-7.546,258.474428571429,-0.908875,0.075475,-0.49325,0.65,0.41325,-0.36325,54.171,0.825866666666667,-0.4689,0.146716666666667,85.0983333333333,-30.505,24.127,5.76333333333333,-0.89745,-0.17725,-0.217525,-162.496666666667,-30.4776666666667,-4.61383333333333,153.5838,1,1,1,1
24-May-2018 12:21:21,52.125,0.936533333333333,0.08005,-0.301666666666667,39.34,6.6206,-7.546,258.474428571429,-0.908875,0.075475,-0.49325,0.65,0.41325,-0.36325,54.171,0.825866666666667,-0.4689,0.146716666666667,85.0983333333333,-30.505,24.127,5.76333333333333,-0.89745,-0.17725,-0.217525,-162.496666666667,-30.4776666666667,-4.61383333333333,153.5838,1,1,1,1
24-May-2018 12:21:22,-432,0.9114,0.0078,-0.216933333333333,110.16125,17.255875,-25.6775,267.844333333333,-0.90722,0.07804,-0.4941,-0.112444444444444,-0.0921111111111111,0.407111111111111,54.171,0.885383333333333,-0.391616666666667,0.183833333333333,45.04,8.23666666666667,-8.39833333333333,4.106,-0.9698,-0.110133333333333,-0.1034,-8.7045,18.2165,-5.42675,337.411,1,1,1,1
24-May-2018 12:21:22,-432,0.9114,0.0078,-0.216933333333333,110.16125,17.255875,-25.6775,267.844333333333,-0.90722,0.07804,-0.4941,-0.112444444444444,-0.0921111111111111,0.407111111111111,54.171,0.885383333333333,-0.391616666666667,0.183833333333333,45.04,8.23666666666667,-8.39833333333333,4.106,-0.9698,-0.110133333333333,-0.1034,-8.7045,18.2165,-5.42675,337.411,1,1,1,1
24-May-2018 12:21:22,-432,0.9114,0.0078,-0.216933333333333,110.16125,17.255875,-25.6775,267.844333333333,-0.90722,0.07804,-0.4941,-0.112444444444444,-0.0921111111111111,0.407111111111111,54.171,0.885383333333333,-0.391616666666667,0.183833333333333,45.04,8.23666666666667,-8.39833333333333,4.106,-0.9698,-0.110133333333333,-0.1034,-8.7045,18.2165,-5.42675,337.411,1,1,1,1
24-May-2018 12:21:22,-432,0.9114,0.0078,-0.216933333333333,110.16125,17.255875,-25.6775,267.844333333333,-0.90722,0.07804,-0.4941,-0.112444444444444,-0.0921111111111111,0.407111111111111,54.171,0.885383333333333,-0.391616666666667,0.183833333333333,45.04,8.23666666666667,-8.39833333333333,4.106,-0.9698,-0.110133333333333,-0.1034,-8.7045,18.2165,-5.42675,337.411,1,1,1,1
24-May-2018 12:21:23,516.6,0.9240875,0.0877125,-0.1741,25.84875,0.603625,-7.163375,362.1805,-0.910175,0.07785,-0.49255,0.0886,-0.1483,0.2318,53.9295,0.856533333333333,-0.284633333333333,0.314533333333333,35.3996666666667,-46.8166666666667,9.50966666666667,6.8555,-0.99756,-0.22838,-0.1846,42.4756,7.8658,-13.5228,445.470666666667,1,1,1,1
24-May-2018 12:21:23,516.6,0.9240875,0.0877125,-0.1741,25.84875,0.603625,-7.163375,362.1805,-0.910175,0.07785,-0.49255,0.0886,-0.1483,0.2318,53.9295,0.856533333333333,-0.284633333333333,0.314533333333333,35.3996666666667,-46.8166666666667,9.50966666666667,6.8555,-0.99756,-0.22838,-0.1846,42.4756,7.8658,-13.5228,445.470666666667,1,1,1,1
24-May-2018 12:21:23,516.6,0.9240875,0.0877125,-0.1741,25.84875,0.603625,-7.163375,362.1805,-0.910175,0.07785,-0.49255,0.0886,-0.1483,0.2318,53.9295,0.856533333333333,-0.284633333333333,0.314533333333333,35.3996666666667,-46.8166666666667,9.50966666666667,6.8555,-0.99756,-0.22838,-0.1846,42.4756,7.8658,-13.5228,445.470666666667,1,1,1,1
24-May-2018 12:21:23,516.6,0.9240875,0.0877125,-0.1741,25.84875,0.603625,-7.163375,362.1805,-0.910175,0.07785,-0.49255,0.0886,-0.1483,0.2318,53.9295,0.856533333333333,-0.284633333333333,0.314533333333333,35.3996666666667,-46.8166666666667,9.50966666666667,6.8555,-0.99756,-0.22838,-0.1846,42.4756,7.8658,-13.5228,445.470666666667,1,1,1,1
24-May-2018 12:21:24,572.090909090909,0.919883333333333,0.136483333333333,-0.228316666666667,34.3668333333333,1.06,-2.33766666666667,414.10775,-0.90948,0.07956,-0.49122,0.0298888888888889,0.285777777777778,0.244111111111111,53.688,0.86726,-0.3001,0.316,33.1383333333333,1.95166666666666,-1.37333333333333,7.3034,-0.93376,-0.24504,-0.12762,2.5246,9.744,-31.3534,423.7105,1,0,1,1
24-May-2018 12:21:24,572.090909090909,0.919883333333333,0.136483333333333,-0.228316666666667,34.3668333333333,1.06,-2.33766666666667,414.10775,-0.90948,0.07956,-0.49122,0.0298888888888889,0.285777777777778,0.244111111111111,53.688,0.86726,-0.3001,0.316,33.1383333333333,1.95166666666666,-1.37333333333333,7.3034,-0.93376,-0.24504,-0.12762,2.5246,9.744,-31.3534,423.7105,1,0,1,1
24-May-2018 12:21:24,572.090909090909,0.919883333333333,0.136483333333333,-0.228316666666667,34.3668333333333,1.06,-2.33766666666667,414.10775,-0.90948,0.07956,-0.49122,0.0298888888888889,0.285777777777778,0.244111111111111,53.688,0.86726,-0.3001,0.316,33.1383333333333,1.95166666666666,-1.37333333333333,7.3034,-0.93376,-0.24504,-0.12762,2.5246,9.744,-31.3534,423.7105,1,0,1,1
24-May-2018 12:21:24,572.090909090909,0.919883333333333,0.136483333333333,-0.228316666666667,34.3668333333333,1.06,-2.33766666666667,414.10775,-0.90948,0.07956,-0.49122,0.0298888888888889,0.285777777777778,0.244111111111111,53.688,0.86726,-0.3001,0.316,33.1383333333333,1.95166666666666,-1.37333333333333,7.3034,-0.93376,-0.24504,-0.12762,2.5246,9.744,-31.3534,423.7105,1,0,1,1
24-May-2018 12:21:25,379.6,0.921557142857143,0.0826857142857143,-0.259242857142857,-8.9885,-1.93125,4.352125,417.260666666667,-0.91004,0.0786,-0.48978,-0.220444444444444,0.786333333333333,0.0088888888888889,53.688,0.85218,-0.38708,0.03856,-82.9,10.9626,-0.912,7.8375,-0.945625,-0.213125,-0.1438,42.4268,14.7194,25.2074,565.291666666667,1,1,1,1
24-May-2018 12:21:25,379.6,0.921557142857143,0.0826857142857143,-0.259242857142857,-8.9885,-1.93125,4.352125,417.260666666667,-0.91004,0.0786,-0.48978,-0.220444444444444,0.786333333333333,0.0088888888888889,53.688,0.85218,-0.38708,0.03856,-82.9,10.9626,-0.912,7.8375,-0.945625,-0.213125,-0.1438,42.4268,14.7194,25.2074,565.291666666667,1,1,1,1
24-May-2018 12:21:25,379.6,0.921557142857143,0.0826857142857143,-0.259242857142857,-8.9885,-1.93125,4.352125,417.260666666667,-0.91004,0.0786,-0.48978,-0.220444444444444,0.786333333333333,0.0088888888888889,53.688,0.85218,-0.38708,0.03856,-82.9,10.9626,-0.912,7.8375,-0.945625,-0.213125,-0.1438,42.4268,14.7194,25.2074,565.291666666667,1,1,1,1
24-May-2018 12:21:25,379.6,0.921557142857143,0.0826857142857143,-0.259242857142857,-8.9885,-1.93125,4.352125,417.260666666667,-0.91004,0.0786,-0.48978,-0.220444444444444,0.786333333333333,0.0088888888888889,53.688,0.85218,-0.38708,0.03856,-82.9,10.9626,-0.912,7.8375,-0.945625,-0.213125,-0.1438,42.4268,14.7194,25.2074,565.291666666667,1,1,1,1
24-May-2018 12:21:26,322.909090909091,0.868166666666667,0.17145,-0.40545,-127.985714285714,-14.4714285714286,41.7885714285714,449.203,-0.9079,0.0771333333333333,-0.490633333333333,0.260875,0.633125,0.5185,53.4186666666667,0.801216666666667,-0.201883333333333,0.481916666666667,-128.72,42.8596,-28.7616,2.636,-0.92625,-0.2303,-0.22235,118.872,51.4736666666667,5.54883333333333,684.215,1,1,1,1
24-May-2018 12:21:26,322.909090909091,0.868166666666667,0.17145,-0.40545,-127.985714285714,-14.4714285714286,41.7885714285714,449.203,-0.9079,0.0771333333333333,-0.490633333333333,0.260875,0.633125,0.5185,53.4186666666667,0.801216666666667,-0.201883333333333,0.481916666666667,-128.72,42.8596,-28.7616,2.636,-0.92625,-0.2303,-0.22235,118.872,51.4736666666667,5.54883333333333,684.215,1,1,1,1
24-May-2018 12:21:26,322.909090909091,0.868166666666667,0.17145,-0.40545,-127.985714285714,-14.4714285714286,41.7885714285714,449.203,-0.9079,0.0771333333333333,-0.490633333333333,0.260875,0.633125,0.5185,53.4186666666667,0.801216666666667,-0.201883333333333,0.481916666666667,-128.72,42.8596,-28.7616,2.636,-0.92625,-0.2303,-0.22235,118.872,51.4736666666667,5.54883333333333,684.215,1,1,1,1
24-May-2018 12:21:26,322.909090909091,0.868166666666667,0.17145,-0.40545,-127.985714285714,-14.4714285714286,41.7885714285714,449.203,-0.9079,0.0771333333333333,-0.490633333333333,0.260875,0.633125,0.5185,53.4186666666667,0.801216666666667,-0.201883333333333,0.481916666666667,-128.72,42.8596,-28.7616,2.636,-0.92625,-0.2303,-0.22235,118.872,51.4736666666667,5.54883333333333,684.215,1,1,1,1
24-May-2018 12:21:27,247.5,0.926644444444444,0.153488888888889,-0.225966666666667,-46.8186666666667,-4.402,15.08,449.203,-0.90982,0.07974,-0.4921,0.238222222222222,0.285777777777778,0.170555555555556,53.284,0.9277,-0.4467,0.2056,-83.7666666666667,-19.1586666666667,-0.165999999999999,3.182,-0.93072,-0.1482,-0.06284,-38.8106666666667,-4.87816666666667,36.4736666666667,374.3645,1,1,1,0
24-May-2018 12:21:27,247.5,0.926644444444444,0.153488888888889,-0.225966666666667,-46.8186666666667,-4.402,15.08,449.203,-0.90982,0.07974,-0.4921,0.238222222222222,0.285777777777778,0.170555555555556,53.284,0.9277,-0.4467,0.2056,-83.7666666666667,-19.1586666666667,-0.165999999999999,3.182,-0.93072,-0.1482,-0.06284,-38.8106666666667,-4.87816666666667,36.4736666666667,374.3645,1,1,1,0
24-May-2018 12:21:27,247.5,0.926644444444444,0.153488888888889,-0.225966666666667,-46.8186666666667,-4.402,15.08,449.203,-0.90982,0.07974,-0.4921,0.238222222222222,0.285777777777778,0.170555555555556,53.284,0.9277,-0.4467,0.2056,-83.7666666666667,-19.1586666666667,-0.165999999999999,3.182,-0.93072,-0.1482,-0.06284,-38.8106666666667,-4.87816666666667,36.4736666666667,374.3645,1,1,1,0
24-May-2018 12:21:27,247.5,0.926644444444444,0.153488888888889,-0.225966666666667,-46.8186666666667,-4.402,15.08,449.203,-0.90982,0.07974,-0.4921,0.238222222222222,0.285777777777778,0.170555555555556,53.284,0.9277,-0.4467,0.2056,-83.7666666666667,-19.1586666666667,-0.165999999999999,3.182,-0.93072,-0.1482,-0.06284,-38.8106666666667,-4.87816666666667,36.4736666666667,374.3645,1,1,1,0
24-May-2018 12:21:28,-38.7,0.9039,0.0824777777777778,-0.266122222222222,-9.60822222222222,-1.246,9.49133333333333,449.203,-0.90924,0.07954,-0.49102,0.13875,0.12325,0.13075,53.284,0.8523,-0.372355555555556,0.1784,15.19,11.8755,-2.95083333333333,2.907,-0.910125,-0.234475,-0.13835,40.559,13.872,-7.36783333333334,428.207,0,1,1,1
24-May-2018 12:21:28,-38.7,0.9039,0.0824777777777778,-0.266122222222222,-9.60822222222222,-1.246,9.49133333333333,449.203,-0.90924,0.07954,-0.49102,0.13875,0.12325,0.13075,53.284,0.8523,-0.372355555555556,0.1784,15.19,11.8755,-2.95083333333333,2.907,-0.910125,-0.234475,-0.13835,40.559,13.872,-7.36783333333334,428.207,0,1,1,1
24-May-2018 12:21:28,-38.7,0.9039,0.0824777777777778,-0.266122222222222,-9.60822222222222,-1.246,9.49133333333333,449.203,-0.90924,0.07954,-0.49102,0.13875,0.12325,0.13075,53.284,0.8523,-0.372355555555556,0.1784,15.19,11.8755,-2.95083333333333,2.907,-0.910125,-0.234475,-0.13835,40.559,13.872,-7.36783333333334,428.207,0,1,1,1
24-May-2018 12:21:28,-38.7,0.9039,0.0824777777777778,-0.266122222222222,-9.60822222222222,-1.246,9.49133333333333,449.203,-0.90924,0.07954,-0.49102,0.13875,0.12325,0.13075,53.284,0.8523,-0.372355555555556,0.1784,15.19,11.8755,-2.95083333333333,2.907,-0.910125,-0.234475,-0.13835,40.559,13.872,-7.36783333333334,428.207,0,1,1,1
24-May-2018 12:21:29,-2048,0.908988888888889,0.0985111111111111,-0.278377777777778,-9.88133333333333,2.07455555555556,-2.09266666666667,449.203,-0.91084,0.07664,-0.48908,1.27588888888889,0.436555555555556,-0.207777777777778,52.856,0.864542857142857,-0.332471428571429,0.1407,6.55166666666667,-1.335,-2.03666666666667,3.6185,-0.92564,-0.13908,0.00512,-4.5885,0.85375,-23.18575,410.209,1,1,1,1
24-May-2018 12:21:29,-2048,0.908988888888889,0.0985111111111111,-0.278377777777778,-9.88133333333333,2.07455555555556,-2.09266666666667,449.203,-0.91084,0.07664,-0.48908,1.27588888888889,0.436555555555556,-0.207777777777778,52.856,0.864542857142857,-0.332471428571429,0.1407,6.55166666666667,-1.335,-2.03666666666667,3.6185,-0.92564,-0.13908,0.00512,-4.5885,0.85375,-23.18575,410.209,1,1,1,1
24-May-2018 12:21:29,-2048,0.908988888888889,0.0985111111111111,-0.278377777777778,-9.88133333333333,2.07455555555556,-2.09266666666667,449.203,-0.91084,0.07664,-0.48908,1.27588888888889,0.436555555555556,-0.207777777777778,52.856,0.864542857142857,-0.332471428571429,0.1407,6.55166666666667,-1.335,-2.03666666666667,3.6185,-0.92564,-0.13908,0.00512,-4.5885,0.85375,-23.18575,410.209,1,1,1,1
24-May-2018 12:21:29,-2048,0.908988888888889,0.0985111111111111,-0.278377777777778,-9.88133333333333,2.07455555555556,-2.09266666666667,449.203,-0.91084,0.07664,-0.48908,1.27588888888889,0.436555555555556,-0.207777777777778,52.856,0.864542857142857,-0.332471428571429,0.1407,6.55166666666667,-1.335,-2.03666666666667,3.6185,-0.92564,-0.13908,0.00512,-4.5885,0.85375,-23.18575,410.209,1,1,1,1
24-May-2018 12:21:30,-2048,0.955833333333333,0.0009,-0.272133333333333,30.8933333333333,4.92283333333333,-14.7866666666667,306.8752,-0.910925,0.07455,-0.489125,1.044875,-0.043625,0.00924999999999999,52.856,0.84875,-0.34655,0.261916666666667,94.0716666666667,-55.175,34.8245,4.4675,-0.999533333333333,-0.212916666666667,-0.182333333333333,-12.0425,-5.671,13.567,303.829,1,1,0.5,0.5
24-May-2018 12:21:30,-2048,0.955833333333333,0.0009,-0.272133333333333,30.8933333333333,4.92283333333333,-14.7866666666667,306.8752,-0.910925,0.07455,-0.489125,1.044875,-0.043625,0.00924999999999999,52.856,0.84875,-0.34655,0.261916666666667,94.0716666666667,-55.175,34.8245,4.4675,-0.999533333333333,-0.212916666666667,-0.182333333333333,-12.0425,-5.671,13.567,303.829,1,1,0.5,0.5
24-May-2018 12:21:30,-2048,0.955833333333333,0.0009,-0.272133333333333,30.8933333333333,4.92283333333333,-14.7866666666667,306.8752,-0.910925,0.07455,-0.489125,1.044875,-0.043625,0.00924999999999999,52.856,0.84875,-0.34655,0.261916666666667,94.0716666666667,-55.175,34.8245,4.4675,-0.999533333333333,-0.212916666666667,-0.182333333333333,-12.0425,-5.671,13.567,303.829,1,1,0.5,0.5
24-May-2018 12:21:30,-2048,0.955833333333333,0.0009,-0.272133333333333,30.8933333333333,4.92283333333333,-14.7866666666667,306.8752,-0.910925,0.07455,-0.489125,1.044875,-0.043625,0.00924999999999999,52.856,0.84875,-0.34655,0.261916666666667,94.0716666666667,-55.175,34.8245,4.4675,-0.999533333333333,-0.212916666666667,-0.182333333333333,-12.0425,-5.671,13.567,303.829,1,1,0.5,0.5
24-May-2018 12:21:31,-1744.2,0.919657142857143,0.0733,-0.214285714285714,96.02,1.244,-24.7333333333333,286.40275,-0.91026,0.06988,-0.48888,2.17477777777778,0.421333333333333,0.536555555555556,52.6113333333333,0.9236,-0.4629,-0.836285714285714,42.005,-31.9583333333333,-3.68483333333333,5.17266666666667,-0.969375,-0.2403,-0.186025,-135.5456,-14.7562,15.5368,554.811,1,1,0,0
24-May-2018 12:21:31,-1744.2,0.919657142857143,0.0733,-0.214285714285714,96.02,1.244,-24.7333333333333,286.40275,-0.91026,0.06988,-0.48888,2.17477777777778,0.421333333333333,0.536555555555556,52.6113333333333,0.9236,-0.4629,-0.836285714285714,42.005,-31.9583333333333,-3.68483333333333,5.17266666666667,-0.969375,-0.2403,-0.186025,-135.5456,-14.7562,15.5368,554.811,1,1,0,0
24-May-2018 12:21:31,-1744.2,0.919657142857143,0.0733,-0.214285714285714,96.02,1.244,-24.7333333333333,286.40275,-0.91026,0.06988,-0.48888,2.17477777777778,0.421333333333333,0.536555555555556,52.6113333333333,0.9236,-0.4629,-0.836285714285714,42.005,-31.9583333333333,-3.68483333333333,5.17266666666667,-0.969375,-0.2403,-0.186025,-135.5456,-14.7562,15.5368,554.811,1,1,0,0
24-May-2018 12:21:31,-1744.2,0.919657142857143,0.0733,-0.214285714285714,96.02,1.244,-24.7333333333333,286.40275,-0.91026,0.06988,-0.48888,2.17477777777778,0.421333333333333,0.536555555555556,52.6113333333333,0.9236,-0.4629,-0.836285714285714,42.005,-31.9583333333333,-3.68483333333333,5.17266666666667,-0.969375,-0.2403,-0.186025,-135.5456,-14.7562,15.5368,554.811,1,1,0,0
24-May-2018 12:21:32,-1168.90909090909,0.911628571428572,0.107871428571429,-0.213385714285714,25.3771111111111,-1.60222222222222,-2.51522222222222,365.9845,-0.91306,0.07018,-0.48666,0.591111111111111,0.590333333333333,0.732333333333333,52.489,0.855925,-0.272825,0.53725,3.796,20.002,5.866,5.315,-0.9993,-0.27826,-0.1166,16.7276666666667,1.931,-7.48983333333333,382.455,1,1,0,0
24-May-2018 12:21:32,-1168.90909090909,0.911628571428572,0.107871428571429,-0.213385714285714,25.3771111111111,-1.60222222222222,-2.51522222222222,365.9845,-0.91306,0.07018,-0.48666,0.591111111111111,0.590333333333333,0.732333333333333,52.489,0.855925,-0.272825,0.53725,3.796,20.002,5.866,5.315,-0.9993,-0.27826,-0.1166,16.7276666666667,1.931,-7.48983333333333,382.455,1,1,0,0
24-May-2018 12:21:32,-1168.90909090909,0.911628571428572,0.107871428571429,-0.213385714285714,25.3771111111111,-1.60222222222222,-2.51522222222222,365.9845,-0.91306,0.07018,-0.48666,0.591111111111111,0.590333333333333,0.732333333333333,52.489,0.855925,-0.272825,0.53725,3.796,20.002,5.866,5.315,-0.9993,-0.27826,-0.1166,16.7276666666667,1.931,-7.48983333333333,382.455,1,1,0,0
24-May-2018 12:21:32,-1168.90909090909,0.911628571428572,0.107871428571429,-0.213385714285714,25.3771111111111,-1.60222222222222,-2.51522222222222,365.9845,-0.91306,0.07018,-0.48666,0.591111111111111,0.590333333333333,0.732333333333333,52.489,0.855925,-0.272825,0.53725,3.796,20.002,5.866,5.315,-0.9993,-0.27826,-0.1166,16.7276666666667,1.931,-7.48983333333333,382.455,1,1,0,0
24-May-2018 12:21:33,-773.4,0.868233333333333,0.0477166666666667,-0.231433333333333,-4.5825,3.1985,3.980625,414.079666666667,-0.91065,0.0722,-0.486425,-0.0171,-0.2966,0.3356,52.489,0.893257142857143,-0.476442857142857,0.162157142857143,10.7033333333333,9.565,3.34533333333333,7.294,-0.9879,-0.249925,-0.10545,-43.109,-9.5486,-19.695,476.312666666667,1,1,0,0
24-May-2018 12:21:33,-773.4,0.868233333333333,0.0477166666666667,-0.231433333333333,-4.5825,3.1985,3.980625,414.079666666667,-0.91065,0.0722,-0.486425,-0.0171,-0.2966,0.3356,52.489,0.893257142857143,-0.476442857142857,0.162157142857143,10.7033333333333,9.565,3.34533333333333,7.294,-0.9879,-0.249925,-0.10545,-43.109,-9.5486,-19.695,476.312666666667,1,1,0,0
24-May-2018 12:21:33,-773.4,0.868233333333333,0.0477166666666667,-0.231433333333333,-4.5825,3.1985,3.980625,414.079666666667,-0.91065,0.0722,-0.486425,-0.0171,-0.2966,0.3356,52.489,0.893257142857143,-0.476442857142857,0.162157142857143,10.7033333333333,9.565,3.34533333333333,7.294,-0.9879,-0.249925,-0.10545,-43.109,-9.5486,-19.695,476.312666666667,1,1,0,0
24-May-2018 12:21:33,-773.4,0.868233333333333,0.0477166666666667,-0.231433333333333,-4.5825,3.1985,3.980625,414.079666666667,-0.91065,0.0722,-0.486425,-0.0171,-0.2966,0.3356,52.489,0.893257142857143,-0.476442857142857,0.162157142857143,10.7033333333333,9.565,3.34533333333333,7.294,-0.9879,-0.249925,-0.10545,-43.109,-9.5486,-19.695,476.312666666667,1,1,0,0
24-May-2018 12:21:34,-516.1,0.8637,0.11606,-0.2535,-6.734,4.502,-0.863399999999999,423.094,-0.914366666666667,0.0734666666666667,-0.484866666666667,-0.392333333333333,-1.08166666666667,0.498166666666667,52.889,0.831983333333333,-0.401516666666667,0.300066666666667,-64.175,-5.5675,14.4325,7.703,-0.93578,-0.25552,-0.1018,17.927,1.11275,49.95425,421.026,1,1,1,0
24-May-2018 12:21:34,-516.1,0.8637,0.11606,-0.2535,-6.734,4.502,-0.863399999999999,423.094,-0.914366666666667,0.0734666666666667,-0.484866666666667,-0.392333333333333,-1.08166666666667,0.498166666666667,52.889,0.831983333333333,-0.401516666666667,0.300066666666667,-64.175,-5.5675,14.4325,7.703,-0.93578,-0.25552,-0.1018,17.927,1.11275,49.95425,421.026,1,1,1,0
24-May-2018 12:21:34,-516.1,0.8637,0.11606,-0.2535,-6.734,4.502,-0.863399999999999,423.094,-0.914366666666667,0.0734666666666667,-0.484866666666667,-0.392333333333333,-1.08166666666667,0.498166666666667,52.889,0.831983333333333,-0.401516666666667,0.300066666666667,-64.175,-5.5675,14.4325,7.703,-0.93578,-0.25552,-0.1018,17.927,1.11275,49.95425,421.026,1,1,1,0
24-May-2018 12:21:34,-516.1,0.8637,0.11606,-0.2535,-6.734,4.502,-0.863399999999999,423.094,-0.914366666666667,0.0734666666666667,-0.484866666666667,-0.392333333333333,-1.08166666666667,0.498166666666667,52.889,0.831983333333333,-0.401516666666667,0.300066666666667,-64.175,-5.5675,14.4325,7.703,-0.93578,-0.25552,-0.1018,17.927,1.11275,49.95425,421.026,1,1,1,0
24-May-2018 12:21:35,-346.777777777778,0.903785714285714,0.0880285714285714,-0.300814285714286,-106.171428571429,-7.86,31.4585714285714,411.14625,-0.91338,0.0753,-0.48228,0.0896666666666667,-0.0527777777777778,0.555777777777778,53.089,0.898683333333333,-0.3421,-0.00931666666666668,-74.585,62.0833333333333,-18.1145,7.063,-0.892416666666667,-0.272866666666667,-0.081,117.235666666667,33.3538333333333,10.2338333333333,613.39025,1,1,1,1
24-May-2018 12:21:35,-346.777777777778,0.903785714285714,0.0880285714285714,-0.300814285714286,-106.171428571429,-7.86,31.4585714285714,411.14625,-0.91338,0.0753,-0.48228,0.0896666666666667,-0.0527777777777778,0.555777777777778,53.089,0.898683333333333,-0.3421,-0.00931666666666668,-74.585,62.0833333333333,-18.1145,7.063,-0.892416666666667,-0.272866666666667,-0.081,117.235666666667,33.3538333333333,10.2338333333333,613.39025,1,1,1,1
24-May-2018 12:21:35,-346.777777777778,0.903785714285714,0.0880285714285714,-0.300814285714286,-106.171428571429,-7.86,31.4585714285714,411.14625,-0.91338,0.0753,-0.48228,0.0896666666666667,-0.0527777777777778,0.555777777777778,53.089,0.898683333333333,-0.3421,-0.00931666666666668,-74.585,62.0833333333333,-18.1145,7.063,-0.892416666666667,-0.272866666666667,-0.081,117.235666666667,33.3538333333333,10.2338333333333,613.39025,1,1,1,1
24-May-2018 12:21:35,-346.777777777778,0.903785714285714,0.0880285714285714,-0.300814285714286,-106.171428571429,-7.86,31.4585714285714,411.14625,-0.91338,0.0753,-0.48228,0.0896666666666667,-0.0527777777777778,0.555777777777778,53.089,0.898683333333333,-0.3421,-0.00931666666666668,-74.585,62.0833333333333,-18.1145,7.063,-0.892416666666667,-0.272866666666667,-0.081,117.235666666667,33.3538333333333,10.2338333333333,613.39025,1,1,1,1
24-May-2018 12:21:36,-242.857142857143,0.9389,0.134371428571429,-0.272214285714286,-37.265,-1.761375,10.006875,411.14625,-0.91465,0.0743,-0.480275,0.391,-0.576625,-0.051875,53.089,0.85826,-0.27952,0.50574,-26.665,-6.319,-2.12225,2.6005,-0.939914285714286,-0.232157142857143,-0.118442857142857,33.336,1.04528571428571,-0.165571428571428,611.561,1,1,1,0
24-May-2018 12:21:36,-242.857142857143,0.9389,0.134371428571429,-0.272214285714286,-37.265,-1.761375,10.006875,411.14625,-0.91465,0.0743,-0.480275,0.391,-0.576625,-0.051875,53.089,0.85826,-0.27952,0.50574,-26.665,-6.319,-2.12225,2.6005,-0.939914285714286,-0.232157142857143,-0.118442857142857,33.336,1.04528571428571,-0.165571428571428,611.561,1,1,1,0
24-May-2018 12:21:36,-242.857142857143,0.9389,0.134371428571429,-0.272214285714286,-37.265,-1.761375,10.006875,411.14625,-0.91465,0.0743,-0.480275,0.391,-0.576625,-0.051875,53.089,0.85826,-0.27952,0.50574,-26.665,-6.319,-2.12225,2.6005,-0.939914285714286,-0.232157142857143,-0.118442857142857,33.336,1.04528571428571,-0.165571428571428,611.561,1,1,1,0
24-May-2018 12:21:36,-242.857142857143,0.9389,0.134371428571429,-0.272214285714286,-37.265,-1.761375,10.006875,411.14625,-0.91465,0.0743,-0.480275,0.391,-0.576625,-0.051875,53.089,0.85826,-0.27952,0.50574,-26.665,-6.319,-2.12225,2.6005,-0.939914285714286,-0.232157142857143,-0.118442857142857,33.336,1.04528571428571,-0.165571428571428,611.561,1,1,1,0
24-May-2018 12:21:37,-174.714285714286,0.930866666666667,0.104388888888889,-0.218177777777778,-28.6537142857143,3.207,12.1512857142857,411.14625,-0.91548,0.07596,-0.47886,-0.6789,0.6414,0.2745,53.439,0.837283333333333,-0.479616666666667,0.12455,-37.6133333333333,-14.9733333333333,4.61333333333333,2.54175,-0.933933333333333,-0.230533333333333,-0.0352833333333333,15.9392,9.268,17.61,378.1426,1,1,1,1
24-May-2018 12:21:37,-174.714285714286,0.930866666666667,0.104388888888889,-0.218177777777778,-28.6537142857143,3.207,12.1512857142857,411.14625,-0.91548,0.07596,-0.47886,-0.6789,0.6414,0.2745,53.439,0.837283333333333,-0.479616666666667,0.12455,-37.6133333333333,-14.9733333333333,4.61333333333333,2.54175,-0.933933333333333,-0.230533333333333,-0.0352833333333333,15.9392,9.268,17.61,378.1426,1,1,1,1
24-May-2018 12:21:37,-174.714285714286,0.930866666666667,0.104388888888889,-0.218177777777778,-28.6537142857143,3.207,12.1512857142857,411.14625,-0.91548,0.07596,-0.47886,-0.6789,0.6414,0.2745,53.439,0.837283333333333,-0.479616666666667,0.12455,-37.6133333333333,-14.9733333333333,4.61333333333333,2.54175,-0.933933333333333,-0.230533333333333,-0.0352833333333333,15.9392,9.268,17.61,378.1426,1,1,1,1
24-May-2018 12:21:37,-174.714285714286,0.930866666666667,0.104388888888889,-0.218177777777778,-28.6537142857143,3.207,12.1512857142857,411.14625,-0.91548,0.07596,-0.47886,-0.6789,0.6414,0.2745,53.439,0.837283333333333,-0.479616666666667,0.12455,-37.6133333333333,-14.9733333333333,4.61333333333333,2.54175,-0.933933333333333,-0.230533333333333,-0.0352833333333333,15.9392,9.268,17.61,378.1426,1,1,1,1
24-May-2018 12:21:38,-113.2,0.918157142857143,0.148014285714286,-0.222,5.91555555555555,1.66688888888889,-3.15333333333333,411.14625,-0.91448,0.076,-0.47854,0.536444444444444,0.314777777777778,0.298444444444444,53.614,0.81934,-0.23896,0.44226,-27.6003333333333,-30.015,13.8168333333333,2.67625,-0.94205,-0.283825,-0.0989125,-21.0102857142857,-8.03142857142857,-11.323,364.743,1,1,1,0
24-May-2018 12:21:38,-113.2,0.918157142857143,0.148014285714286,-0.222,5.91555555555555,1.66688888888889,-3.15333333333333,411.14625,-0.91448,0.076,-0.47854,0.536444444444444,0.314777777777778,0.298444444444444,53.614,0.81934,-0.23896,0.44226,-27.6003333333333,-30.015,13.8168333333333,2.67625,-0.94205,-0.283825,-0.0989125,-21.0102857142857,-8.03142857142857,-11.323,364.743,1,1,1,0
24-May-2018 12:21:38,-113.2,0.918157142857143,0.148014285714286,-0.222,5.91555555555555,1.66688888888889,-3.15333333333333,411.14625,-0.91448,0.076,-0.47854,0.536444444444444,0.314777777777778,0.298444444444444,53.614,0.81934,-0.23896,0.44226,-27.6003333333333,-30.015,13.8168333333333,2.67625,-0.94205,-0.283825,-0.0989125,-21.0102857142857,-8.03142857142857,-11.323,364.743,1,1,1,0
24-May-2018 12:21:38,-113.2,0.918157142857143,0.148014285714286,-0.222,5.91555555555555,1.66688888888889,-3.15333333333333,411.14625,-0.91448,0.076,-0.47854,0.536444444444444,0.314777777777778,0.298444444444444,53.614,0.81934,-0.23896,0.44226,-27.6003333333333,-30.015,13.8168333333333,2.67625,-0.94205,-0.283825,-0.0989125,-21.0102857142857,-8.03142857142857,-11.323,364.743,1,1,1,0
24-May-2018 12:21:39,1351.83333333333,0.896585714285714,0.0534857142857143,-0.247371428571429,20.1483333333333,-3.19816666666667,-5.209,303.194,-0.914925,0.07535,-0.47735,0.475125,0.299125,0.16825,53.614,0.840783333333333,-0.40505,0.160566666666667,36.462,12.12,-7.8122,3.833,-0.937383333333333,-0.2022,-0.0721666666666667,-28.3782,-4.9998,-7.8782,349.677,1,0,1,0
24-May-2018 12:21:39,1351.83333333333,0.896585714285714,0.0534857142857143,-0.247371428571429,20.1483333333333,-3.19816666666667,-5.209,303.194,-0.914925,0.07535,-0.47735,0.475125,0.299125,0.16825,53.614,0.840783333333333,-0.40505,0.160566666666667,36.462,12.12,-7.8122,3.833,-0.937383333333333,-0.2022,-0.0721666666666667,-28.3782,-4.9998,-7.8782,349.677,1,0,1,0
24-May-2018 12:21:39,1351.83333333333,0.896585714285714,0.0534857142857143,-0.247371428571429,20.1483333333333,-3.19816666666667,-5.209,303.194,-0.914925,0.07535,-0.47735,0.475125,0.299125,0.16825,53.614,0.840783333333333,-0.40505,0.160566666666667,36.462,12.12,-7.8122,3.833,-0.937383333333333,-0.2022,-0.0721666666666667,-28.3782,-4.9998,-7.8782,349.677,1,0,1,0
24-May-2018 12:21:39,1351.83333333333,0.896585714285714,0.0534857142857143,-0.247371428571429,20.1483333333333,-3.19816666666667,-5.209,303.194,-0.914925,0.07535,-0.47735,0.475125,0.299125,0.16825,53.614,0.840783333333333,-0.40505,0.160566666666667,36.462,12.12,-7.8122,3.833,-0.937383333333333,-0.2022,-0.0721666666666667,-28.3782,-4.9998,-7.8782,349.677,1,0,1,0
24-May-2018 12:21:40,-88.7,0.906625,0.058175,-0.3013,134.32,2.5128,-30.5,253.5316,-0.915675,0.0749,-0.475725,0.992375,0.27625,0.617625,53.704,0.9197,-0.22288,0.34252,118.22,-33.3204,43.602,5.1012,-0.9186,-0.26975,-0.136133333333333,-108.8528,-32.9146,12.2318,344.446666666667,1,1,1,1
24-May-2018 12:21:40,-88.7,0.906625,0.058175,-0.3013,134.32,2.5128,-30.5,253.5316,-0.915675,0.0749,-0.475725,0.992375,0.27625,0.617625,53.704,0.9197,-0.22288,0.34252,118.22,-33.3204,43.602,5.1012,-0.9186,-0.26975,-0.136133333333333,-108.8528,-32.9146,12.2318,344.446666666667,1,1,1,1
24-May-2018 12:21:40,-88.7,0.906625,0.058175,-0.3013,134.32,2.5128,-30.5,253.5316,-0.915675,0.0749,-0.475725,0.992375,0.27625,0.617625,53.704,0.9197,-0.22288,0.34252,118.22,-33.3204,43.602,5.1012,-0.9186,-0.26975,-0.136133333333333,-108.8528,-32.9146,12.2318,344.446666666667,1,1,1,1
24-May-2018 12:21:40,-88.7,0.906625,0.058175,-0.3013,134.32,2.5128,-30.5,253.5316,-0.915675,0.0749,-0.475725,0.992375,0.27625,0.617625,53.704,0.9197,-0.22288,0.34252,118.22,-33.3204,43.602,5.1012,-0.9186,-0.26975,-0.136133333333333,-108.8528,-32.9146,12.2318,344.446666666667,1,1,1,1
24-May-2018 12:21:41,2047,0.89235,0.0498333333333333,-0.290616666666667,43.9811666666667,3.23966666666667,-15.4883333333333,308.357333333333,-0.915425,0.0764,-0.478225,0.8912,0.5991,-0.082,53.749,0.875514285714286,-0.430485714285714,0.0828857142857143,57.764,-43.14,4.3576,5.07566666666667,-0.93794,-0.21384,-0.00746,-97.5578333333333,-8.384,23.6481666666667,579.030666666667,1,1,0,0
24-May-2018 12:21:41,2047,0.89235,0.0498333333333333,-0.290616666666667,43.9811666666667,3.23966666666667,-15.4883333333333,308.357333333333,-0.915425,0.0764,-0.478225,0.8912,0.5991,-0.082,53.749,0.875514285714286,-0.430485714285714,0.0828857142857143,57.764,-43.14,4.3576,5.07566666666667,-0.93794,-0.21384,-0.00746,-97.5578333333333,-8.384,23.6481666666667,579.030666666667,1,1,0,0
24-May-2018 12:21:41,2047,0.89235,0.0498333333333333,-0.290616666666667,43.9811666666667,3.23966666666667,-15.4883333333333,308.357333333333,-0.915425,0.0764,-0.478225,0.8912,0.5991,-0.082,53.749,0.875514285714286,-0.430485714285714,0.0828857142857143,57.764,-43.14,4.3576,5.07566666666667,-0.93794,-0.21384,-0.00746,-97.5578333333333,-8.384,23.6481666666667,579.030666666667,1,1,0,0
24-May-2018 12:21:41,2047,0.89235,0.0498333333333333,-0.290616666666667,43.9811666666667,3.23966666666667,-15.4883333333333,308.357333333333,-0.915425,0.0764,-0.478225,0.8912,0.5991,-0.082,53.749,0.875514285714286,-0.430485714285714,0.0828857142857143,57.764,-43.14,4.3576,5.07566666666667,-0.93794,-0.21384,-0.00746,-97.5578333333333,-8.384,23.6481666666667,579.030666666667,1,1,0,0
24-May-2018 12:21:42,2047,0.934371428571429,0.154142857142857,-0.311357142857143,-0.761857142857142,-6.30142857142857,-6.39071428571429,365.494,-0.91694,0.07406,-0.47996,1.843,-0.384444444444444,-0.193666666666667,53.749,0.979925,-0.286225,0.4344,8.39571428571429,24.1685714285714,-1.29057142857143,6.59066666666667,-0.974766666666667,-0.2543,-0.0330833333333333,43.7501666666667,5.1625,-21.0163333333333,339.987,1,1,1,1
24-May-2018 12:21:42,2047,0.934371428571429,0.154142857142857,-0.311357142857143,-0.761857142857142,-6.30142857142857,-6.39071428571429,365.494,-0.91694,0.07406,-0.47996,1.843,-0.384444444444444,-0.193666666666667,53.749,0.979925,-0.286225,0.4344,8.39571428571429,24.1685714285714,-1.29057142857143,6.59066666666667,-0.974766666666667,-0.2543,-0.0330833333333333,43.7501666666667,5.1625,-21.0163333333333,339.987,1,1,1,1
24-May-2018 12:21:42,2047,0.934371428571429,0.154142857142857,-0.311357142857143,-0.761857142857142,-6.30142857142857,-6.39071428571429,365.494,-0.91694,0.07406,-0.47996,1.843,-0.384444444444444,-0.193666666666667,53.749,0.979925,-0.286225,0.4344,8.39571428571429,24.1685714285714,-1.29057142857143,6.59066666666667,-0.974766666666667,-0.2543,-0.0330833333333333,43.7501666666667,5.1625,-21.0163333333333,339.987,1,1,1,1
24-May-2018 12:21:42,2047,0.934371428571429,0.154142857142857,-0.311357142857143,-0.761857142857142,-6.30142857142857,-6.39071428571429,365.494,-0.91694,0.07406,-0.47996,1.843,-0.384444444444444,-0.193666666666667,53.749,0.979925,-0.286225,0.4344,8.39571428571429,24.1685714285714,-1.29057142857143,6.59066666666667,-0.974766666666667,-0.2543,-0.0330833333333333,43.7501666666667,5.1625,-21.0163333333333,339.987,1,1,1,1
24-May-2018 12:21:43,1820.5,0.886983333333333,0.0438666666666667,-0.286566666666667,-3.32166666666667,1.25983333333333,6.41833333333333,390.931333333333,-0.914866666666667,0.0704666666666667,-0.478433333333333,0.570333333333333,-0.191166666666667,0.00183333333333334,53.3616666666667,0.94318,-0.43298,0.11132,10.3975,34.4725,-12.235,7.1528,-0.93192,-0.08556,-0.04312,-83.91575,-3.552,-9.57325,454.191,1,1,0,0
24-May-2018 12:21:43,1820.5,0.886983333333333,0.0438666666666667,-0.286566666666667,-3.32166666666667,1.25983333333333,6.41833333333333,390.931333333333,-0.914866666666667,0.0704666666666667,-0.478433333333333,0.570333333333333,-0.191166666666667,0.00183333333333334,53.3616666666667,0.94318,-0.43298,0.11132,10.3975,34.4725,-12.235,7.1528,-0.93192,-0.08556,-0.04312,-83.91575,-3.552,-9.57325,454.191,1,1,0,0
24-May-2018 12:21:43,1820.5,0.886983333333333,0.0438666666666667,-0.286566666666667,-3.32166666666667,1.25983333333333,6.41833333333333,390.931333333333,-0.914866666666667,0.0704666666666667,-0.478433333333333,0.570333333333333,-0.191166666666667,0.00183333333333334,53.3616666666667,0.94318,-0.43298,0.11132,10.3975,34.4725,-12.235,7.1528,-0.93192,-0.08556,-0.04312,-83.91575,-3.552,-9.57325,454.191,1,1,0,0
24-May-2018 12:21:43,1820.5,0.886983333333333,0.0438666666666667,-0.286566666666667,-3.32166666666667,1.25983333333333,6.41833333333333,390.931333333333,-0.914866666666667,0.0704666666666667,-0.478433333333333,0.570333333333333,-0.191166666666667,0.00183333333333334,53.3616666666667,0.94318,-0.43298,0.11132,10.3975,34.4725,-12.235,7.1528,-0.93192,-0.08556,-0.04312,-83.91575,-3.552,-9.57325,454.191,1,1,0,0
24-May-2018 12:21:44,1347,0.918557142857143,0.102442857142857,-0.252171428571429,3.13842857142857,3.45514285714286,6.76642857142857,400.2775,-0.91812,0.06634,-0.47462,1.41655555555556,-1.30455555555556,-0.342777777777778,53.168,0.82655,-0.3391,0.407116666666667,-18.5114285714286,-14.4135714285714,11.1817142857143,8.094,-0.93652,-0.2362,-0.11112,-0.3536,-0.3048,-0.390200000000002,442.902666666667,1,1,1,0
24-May-2018 12:21:44,1347,0.918557142857143,0.102442857142857,-0.252171428571429,3.13842857142857,3.45514285714286,6.76642857142857,400.2775,-0.91812,0.06634,-0.47462,1.41655555555556,-1.30455555555556,-0.342777777777778,53.168,0.82655,-0.3391,0.407116666666667,-18.5114285714286,-14.4135714285714,11.1817142857143,8.094,-0.93652,-0.2362,-0.11112,-0.3536,-0.3048,-0.390200000000002,442.902666666667,1,1,1,0
24-May-2018 12:21:44,1347,0.918557142857143,0.102442857142857,-0.252171428571429,3.13842857142857,3.45514285714286,6.76642857142857,400.2775,-0.91812,0.06634,-0.47462,1.41655555555556,-1.30455555555556,-0.342777777777778,53.168,0.82655,-0.3391,0.407116666666667,-18.5114285714286,-14.4135714285714,11.1817142857143,8.094,-0.93652,-0.2362,-0.11112,-0.3536,-0.3048,-0.390200000000002,442.902666666667,1,1,1,0
24-May-2018 12:21:44,1347,0.918557142857143,0.102442857142857,-0.252171428571429,3.13842857142857,3.45514285714286,6.76642857142857,400.2775,-0.91812,0.06634,-0.47462,1.41655555555556,-1.30455555555556,-0.342777777777778,53.168,0.82655,-0.3391,0.407116666666667,-18.5114285714286,-14.4135714285714,11.1817142857143,8.094,-0.93652,-0.2362,-0.11112,-0.3536,-0.3048,-0.390200000000002,442.902666666667,1,1,1,0
24-May-2018 12:21:45,978.444444444444,0.9023,0.1952,-0.26155,-106.5,-7.11216666666667,36.1965,420.79925,-0.918825,0.065825,-0.470675,-0.03,0.4899,0.2463,53.168,0.863683333333333,-0.3674,-0.0563166666666667,-77.5166666666667,35.5861666666667,-3.37266666666667,6.72533333333333,-0.87508,-0.28844,-0.03126,40.6808333333333,1.02633333333333,-24.0345,567.327,1,0,1,1
24-May-2018 12:21:45,978.444444444444,0.9023,0.1952,-0.26155,-106.5,-7.11216666666667,36.1965,420.79925,-0.918825,0.065825,-0.470675,-0.03,0.4899,0.2463,53.168,0.863683333333333,-0.3674,-0.0563166666666667,-77.5166666666667,35.5861666666667,-3.37266666666667,6.72533333333333,-0.87508,-0.28844,-0.03126,40.6808333333333,1.02633333333333,-24.0345,567.327,1,0,1,1
24-May-2018 12:21:45,978.444444444444,0.9023,0.1952,-0.26155,-106.5,-7.11216666666667,36.1965,420.79925,-0.918825,0.065825,-0.470675,-0.03,0.4899,0.2463,53.168,0.863683333333333,-0.3674,-0.0563166666666667,-77.5166666666667,35.5861666666667,-3.37266666666667,6.72533333333333,-0.87508,-0.28844,-0.03126,40.6808333333333,1.02633333333333,-24.0345,567.327,1,0,1,1
24-May-2018 12:21:45,978.444444444444,0.9023,0.1952,-0.26155,-106.5,-7.11216666666667,36.1965,420.79925,-0.918825,0.065825,-0.470675,-0.03,0.4899,0.2463,53.168,0.863683333333333,-0.3674,-0.0563166666666667,-77.5166666666667,35.5861666666667,-3.37266666666667,6.72533333333333,-0.87508,-0.28844,-0.03126,40.6808333333333,1.02633333333333,-24.0345,567.327,1,0,1,1
24-May-2018 12:21:46,703.1,0.9189,0.0763777777777778,-0.247277777777778,-55.72375,-0.1665,14.388125,420.79925,-0.91958,0.06612,-0.47244,-0.2345,-0.0194999999999999,0.693875,52.096,0.868228571428571,-0.224328571428571,0.498757142857143,-18.1142857142857,11.5695714285714,-5.11257142857143,2.71533333333333,-0.951675,-0.2927,-0.144025,107.11875,35.503,-6.61575,655.642666666667,1,1,1,1
24-May-2018 12:21:46,703.1,0.9189,0.0763777777777778,-0.247277777777778,-55.72375,-0.1665,14.388125,420.79925,-0.91958,0.06612,-0.47244,-0.2345,-0.0194999999999999,0.693875,52.096,0.868228571428571,-0.224328571428571,0.498757142857143,-18.1142857142857,11.5695714285714,-5.11257142857143,2.71533333333333,-0.951675,-0.2927,-0.144025,107.11875,35.503,-6.61575,655.642666666667,1,1,1,1
24-May-2018 12:21:46,703.1,0.9189,0.0763777777777778,-0.247277777777778,-55.72375,-0.1665,14.388125,420.79925,-0.91958,0.06612,-0.47244,-0.2345,-0.0194999999999999,0.693875,52.096,0.868228571428571,-0.224328571428571,0.498757142857143,-18.1142857142857,11.5695714285714,-5.11257142857143,2.71533333333333,-0.951675,-0.2927,-0.144025,107.11875,35.503,-6.61575,655.642666666667,1,1,1,1
24-May-2018 12:21:46,703.1,0.9189,0.0763777777777778,-0.247277777777778,-55.72375,-0.1665,14.388125,420.79925,-0.91958,0.06612,-0.47244,-0.2345,-0.0194999999999999,0.693875,52.096,0.868228571428571,-0.224328571428571,0.498757142857143,-18.1142857142857,11.5695714285714,-5.11257142857143,2.71533333333333,-0.951675,-0.2927,-0.144025,107.11875,35.503,-6.61575,655.642666666667,1,1,1,1
24-May-2018 12:21:47,500,0.9469,0.0716428571428571,-0.210371428571429,-18.5366666666667,-3.04133333333333,10.2973333333333,420.79925,-0.9187,0.069175,-0.47085,0.0712222222222222,0.766333333333333,0.447333333333333,51.56,0.8339,-0.437566666666667,0.249966666666667,-52.9783333333333,-12.1533333333333,5.74133333333333,3.0395,-0.925575,-0.237,-0.03015,-8.32757142857143,-3.74571428571429,16.2284285714286,404.607,1,1,1,1
24-May-2018 12:21:47,500,0.9469,0.0716428571428571,-0.210371428571429,-18.5366666666667,-3.04133333333333,10.2973333333333,420.79925,-0.9187,0.069175,-0.47085,0.0712222222222222,0.766333333333333,0.447333333333333,51.56,0.8339,-0.437566666666667,0.249966666666667,-52.9783333333333,-12.1533333333333,5.74133333333333,3.0395,-0.925575,-0.237,-0.03015,-8.32757142857143,-3.74571428571429,16.2284285714286,404.607,1,1,1,1
24-May-2018 12:21:47,500,0.9469,0.0716428571428571,-0.210371428571429,-18.5366666666667,-3.04133333333333,10.2973333333333,420.79925,-0.9187,0.069175,-0.47085,0.0712222222222222,0.766333333333333,0.447333333333333,51.56,0.8339,-0.437566666666667,0.249966666666667,-52.9783333333333,-12.1533333333333,5.74133333333333,3.0395,-0.925575,-0.237,-0.03015,-8.32757142857143,-3.74571428571429,16.2284285714286,404.607,1,1,1,1
24-May-2018 12:21:47,500,0.9469,0.0716428571428571,-0.210371428571429,-18.5366666666667,-3.04133333333333,10.2973333333333,420.79925,-0.9187,0.069175,-0.47085,0.0712222222222222,0.766333333333333,0.447333333333333,51.56,0.8339,-0.437566666666667,0.249966666666667,-52.9783333333333,-12.1533333333333,5.74133333333333,3.0395,-0.925575,-0.237,-0.03015,-8.32757142857143,-3.74571428571429,16.2284285714286,404.607,1,1,1,1
24-May-2018 12:21:48,366.222222222222,0.9028875,0.1042875,-0.2789625,1.21775,3.18825,-7.538,420.79925,-0.91885,0.07355,-0.471733333333333,-0.946,0.95,0.793,51.4826666666667,0.795866666666667,-0.341083333333333,0.299483333333333,57.6966666666667,66.04,-19.2023333333333,3.208,-1.0679,-0.24818,-0.15286,-11.936,2.9725,18.07925,349.3612,1,1,1,1
24-May-2018 12:21:48,366.222222222222,0.9028875,0.1042875,-0.2789625,1.21775,3.18825,-7.538,420.79925,-0.91885,0.07355,-0.471733333333333,-0.946,0.95,0.793,51.4826666666667,0.795866666666667,-0.341083333333333,0.299483333333333,57.6966666666667,66.04,-19.2023333333333,3.208,-1.0679,-0.24818,-0.15286,-11.936,2.9725,18.07925,349.3612,1,1,1,1
24-May-2018 12:21:48,366.222222222222,0.9028875,0.1042875,-0.2789625,1.21775,3.18825,-7.538,420.79925,-0.91885,0.07355,-0.471733333333333,-0.946,0.95,0.793,51.4826666666667,0.795866666666667,-0.341083333333333,0.299483333333333,57.6966666666667,66.04,-19.2023333333333,3.208,-1.0679,-0.24818,-0.15286,-11.936,2.9725,18.07925,349.3612,1,1,1,1
24-May-2018 12:21:48,366.222222222222,0.9028875,0.1042875,-0.2789625,1.21775,3.18825,-7.538,420.79925,-0.91885,0.07355,-0.471733333333333,-0.946,0.95,0.793,51.4826666666667,0.795866666666667,-0.341083333333333,0.299483333333333,57.6966666666667,66.04,-19.2023333333333,3.208,-1.0679,-0.24818,-0.15286,-11.936,2.9725,18.07925,349.3612,1,1,1,1
24-May-2018 12:21:49,272.2,0.904414285714286,0.0749142857142857,-0.2511,-17.4757142857143,0.0378571428571429,5.895,420.79925,-0.917325,0.07295,-0.473675,-0.165125,1.08275,1.26525,51.328,1.01636,-0.45188,0.1443,-27.1214285714286,-21.2862857142857,8.38557142857143,3.63475,-0.95212,-0.19328,-0.0265,4.8048,4.9878,-9.4878,394.653,1,1,1,1
24-May-2018 12:21:49,272.2,0.904414285714286,0.0749142857142857,-0.2511,-17.4757142857143,0.0378571428571429,5.895,420.79925,-0.917325,0.07295,-0.473675,-0.165125,1.08275,1.26525,51.328,1.01636,-0.45188,0.1443,-27.1214285714286,-21.2862857142857,8.38557142857143,3.63475,-0.95212,-0.19328,-0.0265,4.8048,4.9878,-9.4878,394.653,1,1,1,1
24-May-2018 12:21:49,272.2,0.904414285714286,0.0749142857142857,-0.2511,-17.4757142857143,0.0378571428571429,5.895,420.79925,-0.917325,0.07295,-0.473675,-0.165125,1.08275,1.26525,51.328,1.01636,-0.45188,0.1443,-27.1214285714286,-21.2862857142857,8.38557142857143,3.63475,-0.95212,-0.19328,-0.0265,4.8048,4.9878,-9.4878,394.653,1,1,1,1
24-May-2018 12:21:49,272.2,0.904414285714286,0.0749142857142857,-0.2511,-17.4757142857143,0.0378571428571429,5.895,0,-0.917325,0.07295,-0.473675,-0.165125,1.08275,1.26525,51.328,1.01636,-0.45188,0.1443,-27.1214285714286,-21.2862857142857,8.38557142857143,3.63475,-0.95212,-0.19328,-0.0265,4.8048,4.9878,-9.4878,394.653,1,1,1,1
24-May-2018 12:21:50,205.777777777778,0.88602,0.03034,-0.27614,87.874,5.9896,-24.06,295.0852,-0.917025,0.0793,-0.47725,0.530111111111111,-0.092,1.18566666666667,51.328,0.863942857142857,-0.424728571428571,0.330114285714286,89.144,2.658,10.364,3.618,-0.93192,-0.23196,-0.18178,-12.886,-15.508,8.47566666666667,316.033,1,0,1,1
24-May-2018 12:21:50,205.777777777778,0.88602,0.03034,-0.27614,87.874,5.9896,-24.06,295.0852,-0.917025,0.0793,-0.47725,0.530111111111111,-0.092,1.18566666666667,51.328,0.863942857142857,-0.424728571428571,0.330114285714286,89.144,2.658,10.364,3.618,-0.93192,-0.23196,-0.18178,-12.886,-15.508,8.47566666666667,316.033,1,0,1,1
24-May-2018 12:21:50,205.777777777778,0.88602,0.03034,-0.27614,87.874,5.9896,-24.06,295.0852,-0.917025,0.0793,-0.47725,0.530111111111111,-0.092,1.18566666666667,51.328,0.863942857142857,-0.424728571428571,0.330114285714286,89.144,2.658,10.364,3.618,-0.93192,-0.23196,-0.18178,-12.886,-15.508,8.47566666666667,316.033,1,0,1,1
24-May-2018 12:21:50,205.777777777778,0.88602,0.03034,-0.27614,87.874,5.9896,-24.06,295.0852,-0.917025,0.0793,-0.47725,0.530111111111111,-0.092,1.18566666666667,51.328,0.863942857142857,-0.424728571428571,0.330114285714286,89.144,2.658,10.364,3.618,-0.93192,-0.23196,-0.18178,-12.886,-15.508,8.47566666666667,316.033,1,0,1,1
24-May-2018 12:21:51,161.888888888889,0.920666666666667,0.07835,-0.18965,92.648,5.9258,-19.43,278.7778,-0.916775,0.081025,-0.47705,-0.526833333333333,1.16983333333333,0.6615,51.328,0.84168,-0.49696,-0.00254,71.8875,-47.375,10.503,5.007,-0.9015,-0.2113,-0.10378,-126.354625,-14.7485,-1.7835,360.749,1,1,1,0
24-May-2018 12:21:51,161.888888888889,0.920666666666667,0.07835,-0.18965,92.648,5.9258,-19.43,278.7778,-0.916775,0.081025,-0.47705,-0.526833333333333,1.16983333333333,0.6615,51.328,0.84168,-0.49696,-0.00254,71.8875,-47.375,10.503,5.007,-0.9015,-0.2113,-0.10378,-126.354625,-14.7485,-1.7835,360.749,1,1,1,0
24-May-2018 12:21:51,161.888888888889,0.920666666666667,0.07835,-0.18965,92.648,5.9258,-19.43,278.7778,-0.916775,0.081025,-0.47705,-0.526833333333333,1.16983333333333,0.6615,51.328,0.84168,-0.49696,-0.00254,71.8875,-47.375,10.503,5.007,-0.9015,-0.2113,-0.10378,-126.354625,-14.7485,-1.7835,360.749,1,1,1,0
24-May-2018 12:21:51,161.888888888889,0.920666666666667,0.07835,-0.18965,92.648,5.9258,-19.43,278.7778,-0.916775,0.081025,-0.47705,-0.526833333333333,1.16983333333333,0.6615,51.328,0.84168,-0.49696,-0.00254,71.8875,-47.375,10.503,5.007,-0.9015,-0.2113,-0.10378,-126.354625,-14.7485,-1.7835,360.749,1,1,1,0
24-May-2018 12:21:52,134.666666666667,0.935925,0.069,-0.315925,20.5938,4.0004,-7.1464,370.6685,-0.91702,0.08372,-0.47558,0.6495,0.039625,0.34375,51.248,0.8351,-0.477514285714286,0.0639142857142857,49.4966666666667,17.9668333333333,-12.8333333333333,4.805,-0.95165,-0.17335,-0.158525,7.256,17.3576666666667,-3.57733333333333,440.3522,1,1,1,1
24-May-2018 12:21:52,134.666666666667,0.935925,0.069,-0.315925,20.5938,4.0004,-7.1464,370.6685,-0.91702,0.08372,-0.47558,0.6495,0.039625,0.34375,51.248,0.8351,-0.477514285714286,0.0639142857142857,49.4966666666667,17.9668333333333,-12.8333333333333,4.805,-0.95165,-0.17335,-0.158525,7.256,17.3576666666667,-3.57733333333333,440.3522,1,1,1,1
24-May-2018 12:21:52,134.666666666667,0.935925,0.069,-0.315925,20.5938,4.0004,-7.1464,370.6685,-0.91702,0.08372,-0.47558,0.6495,0.039625,0.34375,51.248,0.8351,-0.477514285714286,0.0639142857142857,49.4966666666667,17.9668333333333,-12.8333333333333,4.805,-0.95165,-0.17335,-0.158525,7.256,17.3576666666667,-3.57733333333333,440.3522,1,1,1,1
24-May-2018 12:21:52,134.666666666667,0.935925,0.069,-0.315925,20.5938,4.0004,-7.1464,370.6685,-0.91702,0.08372,-0.47558,0.6495,0.039625,0.34375,51.248,0.8351,-0.477514285714286,0.0639142857142857,49.4966666666667,17.9668333333333,-12.8333333333333,4.805,-0.95165,-0.17335,-0.158525,7.256,17.3576666666667,-3.57733333333333,440.3522,1,1,1,1
24-May-2018 12:21:53,114,0.936814285714286,0.134671428571429,-0.1371,7.624,-1.36842857142857,7.36142857142857,388.110666666667,-0.91696,0.08374,-0.47364,0.4125,0.032875,0.808125,51.248,0.817025,-0.389,0.340575,-24.9125,-23.839625,9.123375,6.255,-0.9586,-0.1116,-0.0603714285714286,-25.0493333333333,5.61983333333333,39.0753333333333,426.284,1,1,0,0
24-May-2018 12:21:53,114,0.936814285714286,0.134671428571429,-0.1371,7.624,-1.36842857142857,7.36142857142857,388.110666666667,-0.91696,0.08374,-0.47364,0.4125,0.032875,0.808125,51.248,0.817025,-0.389,0.340575,-24.9125,-23.839625,9.123375,6.255,-0.9586,-0.1116,-0.0603714285714286,-25.0493333333333,5.61983333333333,39.0753333333333,426.284,1,1,0,0
24-May-2018 12:21:53,114,0.936814285714286,0.134671428571429,-0.1371,7.624,-1.36842857142857,7.36142857142857,388.110666666667,-0.91696,0.08374,-0.47364,0.4125,0.032875,0.808125,51.248,0.817025,-0.389,0.340575,-24.9125,-23.839625,9.123375,6.255,-0.9586,-0.1116,-0.0603714285714286,-25.0493333333333,5.61983333333333,39.0753333333333,426.284,1,1,0,0
24-May-2018 12:21:53,114,0.936814285714286,0.134671428571429,-0.1371,7.624,-1.36842857142857,7.36142857142857,388.110666666667,-0.91696,0.08374,-0.47364,0.4125,0.032875,0.808125,51.248,0.817025,-0.389,0.340575,-24.9125,-23.839625,9.123375,6.255,-0.9586,-0.1116,-0.0603714285714286,-25.0493333333333,5.61983333333333,39.0753333333333,426.284,1,1,0,0
24-May-2018 12:21:54,98.1428571428571,0.91712,0.10202,-0.23112,-2.3425,5.5625,-10.697,413.145666666667,-0.91884,0.08006,-0.47304,1.68022222222222,-0.0176666666666667,-0.694444444444444,51.4085,0.904133333333333,-0.37735,0.254866666666667,47.4783333333333,12.3981666666667,-2.22,7.22725,-0.947875,-0.186275,-0.10035,23.9226666666667,7.06316666666667,-28.5466666666667,412.43875,1,1,1,1
24-May-2018 12:21:54,98.1428571428571,0.91712,0.10202,-0.23112,-2.3425,5.5625,-10.697,413.145666666667,-0.91884,0.08006,-0.47304,1.68022222222222,-0.0176666666666667,-0.694444444444444,51.4085,0.904133333333333,-0.37735,0.254866666666667,47.4783333333333,12.3981666666667,-2.22,7.22725,-0.947875,-0.186275,-0.10035,23.9226666666667,7.06316666666667,-28.5466666666667,412.43875,1,1,1,1
24-May-2018 12:21:54,98.1428571428571,0.91712,0.10202,-0.23112,-2.3425,5.5625,-10.697,413.145666666667,-0.91884,0.08006,-0.47304,1.68022222222222,-0.0176666666666667,-0.694444444444444,51.4085,0.904133333333333,-0.37735,0.254866666666667,47.4783333333333,12.3981666666667,-2.22,7.22725,-0.947875,-0.186275,-0.10035,23.9226666666667,7.06316666666667,-28.5466666666667,412.43875,1,1,1,1
24-May-2018 12:21:54,98.1428571428571,0.91712,0.10202,-0.23112,-2.3425,5.5625,-10.697,413.145666666667,-0.91884,0.08006,-0.47304,1.68022222222222,-0.0176666666666667,-0.694444444444444,51.4085,0.904133333333333,-0.37735,0.254866666666667,47.4783333333333,12.3981666666667,-2.22,7.22725,-0.947875,-0.186275,-0.10035,23.9226666666667,7.06316666666667,-28.5466666666667,412.43875,1,1,1,1
24-May-2018 12:21:55,85.5555555555556,0.928925,0.17195,-0.2131875,-62.4443333333333,4.71133333333333,16.5515,448.718333333333,-0.91826,0.07834,-0.47296,0.969777777777778,0.997333333333333,0.258111111111111,51.462,0.8655,-0.388875,0.054325,-49.08,-6.364,4.7926,8.4244,-0.9068,-0.33515,-0.066,-21.4634,-2.2562,4.7318,614.245,1,1,1,1
24-May-2018 12:21:55,85.5555555555556,0.928925,0.17195,-0.2131875,-62.4443333333333,4.71133333333333,16.5515,448.718333333333,-0.91826,0.07834,-0.47296,0.969777777777778,0.997333333333333,0.258111111111111,51.462,0.8655,-0.388875,0.054325,-49.08,-6.364,4.7926,8.4244,-0.9068,-0.33515,-0.066,-21.4634,-2.2562,4.7318,614.245,1,1,1,1
24-May-2018 12:21:55,85.5555555555556,0.928925,0.17195,-0.2131875,-62.4443333333333,4.71133333333333,16.5515,448.718333333333,-0.91826,0.07834,-0.47296,0.969777777777778,0.997333333333333,0.258111111111111,51.462,0.8655,-0.388875,0.054325,-49.08,-6.364,4.7926,8.4244,-0.9068,-0.33515,-0.066,-21.4634,-2.2562,4.7318,614.245,1,1,1,1
24-May-2018 12:21:55,85.5555555555556,0.928925,0.17195,-0.2131875,-62.4443333333333,4.71133333333333,16.5515,448.718333333333,-0.91826,0.07834,-0.47296,0.969777777777778,0.997333333333333,0.258111111111111,51.462,0.8655,-0.388875,0.054325,-49.08,-6.364,4.7926,8.4244,-0.9068,-0.33515,-0.066,-21.4634,-2.2562,4.7318,614.245,1,1,1,1
24-May-2018 12:21:56,74.9,0.923366666666667,0.173333333333333,-0.0217333333333333,-76.7142857142857,-4.67585714285714,-1.97371428571429,448.718333333333,-0.91575,0.075025,-0.4801,1.29842857142857,1.77828571428571,-1.29428571428571,51.462,0.889266666666667,-0.300483333333333,0.208516666666667,-80.4666666666667,53.4133333333333,-12.9765,8.4244,-0.9011,-0.2682,-0.19746,85.747,22.1495,15.32,522.688,1,1,1,1
24-May-2018 12:21:56,74.9,0.923366666666667,0.173333333333333,-0.0217333333333333,-76.7142857142857,-4.67585714285714,-1.97371428571429,448.718333333333,-0.91575,0.075025,-0.4801,1.29842857142857,1.77828571428571,-1.29428571428571,51.462,0.889266666666667,-0.300483333333333,0.208516666666667,-80.4666666666667,53.4133333333333,-12.9765,8.4244,-0.9011,-0.2682,-0.19746,85.747,22.1495,15.32,522.688,1,1,1,1
24-May-2018 12:21:56,74.9,0.923366666666667,0.173333333333333,-0.0217333333333333,-76.7142857142857,-4.67585714285714,-1.97371428571429,448.718333333333,-0.91575,0.075025,-0.4801,1.29842857142857,1.77828571428571,-1.29428571428571,51.462,0.889266666666667,-0.300483333333333,0.208516666666667,-80.4666666666667,53.4133333333333,-12.9765,8.4244,-0.9011,-0.2682,-0.19746,85.747,22.1495,15.32,522.688,1,1,1,1
24-May-2018 12:21:56,74.9,0.923366666666667,0.173333333333333,-0.0217333333333333,-76.7142857142857,-4.67585714285714,-1.97371428571429,448.718333333333,-0.91575,0.075025,-0.4801,1.29842857142857,1.77828571428571,-1.29428571428571,51.462,0.889266666666667,-0.300483333333333,0.208516666666667,-80.4666666666667,53.4133333333333,-12.9765,0,-0.9011,-0.2682,-0.19746,85.747,22.1495,15.32,522.688,1,1,1,1
24-May-2018 12:21:57,68.5714285714286,0.943375,0.1834375,-0.0339875,-29.9721428571429,-20.19,11.4701428571429,448.718333333333,-0.9133,0.072,-0.481525,1.84277777777778,1.28188888888889,-0.369444444444444,52.52175,0.8979,-0.274216666666667,0.473033333333333,11.18,-8.1525,-15,2.85125,-0.88895,-0.454283333333333,-0.1009,30.899625,26.181375,-14.358,645.1505,1,1,1,1
24-May-2018 12:21:57,68.5714285714286,0.943375,0.1834375,-0.0339875,-29.9721428571429,-20.19,11.4701428571429,448.718333333333,-0.9133,0.072,-0.481525,1.84277777777778,1.28188888888889,-0.369444444444444,52.52175,0.8979,-0.274216666666667,0.473033333333333,11.18,-8.1525,-15,2.85125,-0.88895,-0.454283333333333,-0.1009,30.899625,26.181375,-14.358,645.1505,1,1,1,1
24-May-2018 12:21:57,68.5714285714286,0.943375,0.1834375,-0.0339875,-29.9721428571429,-20.19,11.4701428571429,448.718333333333,-0.9133,0.072,-0.481525,1.84277777777778,1.28188888888889,-0.369444444444444,52.52175,0.8979,-0.274216666666667,0.473033333333333,11.18,-8.1525,-15,2.85125,-0.88895,-0.454283333333333,-0.1009,30.899625,26.181375,-14.358,645.1505,1,1,1,1
24-May-2018 12:21:57,68.5714285714286,0.943375,0.1834375,-0.0339875,-29.9721428571429,-20.19,11.4701428571429,448.718333333333,-0.9133,0.072,-0.481525,1.84277777777778,1.28188888888889,-0.369444444444444,52.52175,0.8979,-0.274216666666667,0.473033333333333,11.18,-8.1525,-15,2.85125,-0.88895,-0.454283333333333,-0.1009,30.899625,26.181375,-14.358,645.1505,1,1,1,1
24-May-2018 12:21:58,66.25,0.9379125,0.0830375,-0.145225,-22.809375,-0.172875,2.004375,448.718333333333,-0.912525,0.06525,-0.479025,1.48411111111111,1.61233333333333,0.238,52.875,0.89418,-0.42976,0.1217,-32.3,16.122,-6.4198,2.518,-0.9508,-0.124071428571429,-0.127342857142857,42.927,2.0852,-51.0854,417.613666666667,1,1,1,1
24-May-2018 12:21:58,66.25,0.9379125,0.0830375,-0.145225,-22.809375,-0.172875,2.004375,448.718333333333,-0.912525,0.06525,-0.479025,1.48411111111111,1.61233333333333,0.238,52.875,0.89418,-0.42976,0.1217,-32.3,16.122,-6.4198,2.518,-0.9508,-0.124071428571429,-0.127342857142857,42.927,2.0852,-51.0854,417.613666666667,1,1,1,1
24-May-2018 12:21:58,66.25,0.9379125,0.0830375,-0.145225,-22.809375,-0.172875,2.004375,448.718333333333,-0.912525,0.06525,-0.479025,1.48411111111111,1.61233333333333,0.238,52.875,0.89418,-0.42976,0.1217,-32.3,16.122,-6.4198,2.518,-0.9508,-0.124071428571429,-0.127342857142857,42.927,2.0852,-51.0854,417.613666666667,1,1,1,1
24-May-2018 12:21:58,66.25,0.9379125,0.0830375,-0.145225,-22.809375,-0.172875,2.004375,448.718333333333,-0.912525,0.06525,-0.479025,1.48411111111111,1.61233333333333,0.238,52.875,0.89418,-0.42976,0.1217,-32.3,16.122,-6.4198,2.518,-0.9508,-0.124071428571429,-0.127342857142857,42.927,2.0852,-51.0854,417.613666666667,1,1,1,1
24-May-2018 12:21:59,-1584,0.9656875,0.121175,-0.129175,-3.5175,2.503,2.236,448.718333333333,-0.91396,0.06346,-0.48122,0.888333333333333,-0.566555555555556,0.259333333333333,52.875,0.83425,-0.3153,0.423175,-36.494,-12.614,10.7192,2.80833333333333,-0.9583,-0.190375,-0.069675,-15.1911428571429,10.8974285714286,32.5085714285714,338.737,0,1,1,1
24-May-2018 12:21:59,-1584,0.9656875,0.121175,-0.129175,-3.5175,2.503,2.236,448.718333333333,-0.91396,0.06346,-0.48122,0.888333333333333,-0.566555555555556,0.259333333333333,52.875,0.83425,-0.3153,0.423175,-36.494,-12.614,10.7192,2.80833333333333,-0.9583,-0.190375,-0.069675,-15.1911428571429,10.8974285714286,32.5085714285714,338.737,0,1,1,1
24-May-2018 12:21:59,-1584,0.9656875,0.121175,-0.129175,-3.5175,2.503,2.236,448.718333333333,-0.91396,0.06346,-0.48122,0.888333333333333,-0.566555555555556,0.259333333333333,52.875,0.83425,-0.3153,0.423175,-36.494,-12.614,10.7192,2.80833333333333,-0.9583,-0.190375,-0.069675,-15.1911428571429,10.8974285714286,32.5085714285714,338.737,0,1,1,1
24-May-2018 12:21:59,-1584,0.9656875,0.121175,-0.129175,-3.5175,2.503,2.236,0,-0.91396,0.06346,-0.48122,0.888333333333333,-0.566555555555556,0.259333333333333,52.875,0.83425,-0.3153,0.423175,-36.494,-12.614,10.7192,2.80833333333333,-0.9583,-0.190375,-0.069675,-15.1911428571429,10.8974285714286,32.5085714285714,338.737,0,1,1,1
24-May-2018 12:22:00,-2048,0.94644,0.06316,-0.23926,19.675,4.24075,-6.29975,312.482,-0.9165,0.068525,-0.480275,-0.126444444444445,-2.07688888888889,1.45711111111111,53.688,0.8316,-0.352916666666667,0.240483333333333,-15.04,-38.7,0.3695,3.3535,-1.03072,-0.24062,-0.24596,-24.9512,-15.256,-21.1462,271.427,0,0,1,1
24-May-2018 12:22:00,-2048,0.94644,0.06316,-0.23926,19.675,4.24075,-6.29975,312.482,-0.9165,0.068525,-0.480275,-0.126444444444445,-2.07688888888889,1.45711111111111,53.688,0.8316,-0.352916666666667,0.240483333333333,-15.04,-38.7,0.3695,3.3535,-1.03072,-0.24062,-0.24596,-24.9512,-15.256,-21.1462,271.427,0,0,1,1
24-May-2018 12:22:00,-2048,0.94644,0.06316,-0.23926,19.675,4.24075,-6.29975,312.482,-0.9165,0.068525,-0.480275,-0.126444444444445,-2.07688888888889,1.45711111111111,53.688,0.8316,-0.352916666666667,0.240483333333333,-15.04,-38.7,0.3695,3.3535,-1.03072,-0.24062,-0.24596,-24.9512,-15.256,-21.1462,271.427,0,0,1,1
24-May-2018 12:22:00,-2048,0.94644,0.06316,-0.23926,19.675,4.24075,-6.29975,312.482,-0.9165,0.068525,-0.480275,-0.126444444444445,-2.07688888888889,1.45711111111111,53.688,0.8316,-0.352916666666667,0.240483333333333,-15.04,-38.7,0.3695,3.3535,-1.03072,-0.24062,-0.24596,-24.9512,-15.256,-21.1462,271.427,0,0,1,1
24-May-2018 12:22:01,-2048,0.946783333333333,0.0672833333333333,-0.211783333333333,107.291428571429,-0.389142857142857,-23.158,264.873666666667,-0.92302,0.0696,-0.46066,0.0907777777777777,-5.82744444444444,0.732333333333333,53.688,0.971733333333333,-0.34815,0.208183333333333,106.46875,-42.175,34.067375,5.125,-0.92305,-0.27765,-0.088275,-88.589,-9.939125,14.0015,242.492,1,1,1,1
24-May-2018 12:22:01,-2048,0.946783333333333,0.0672833333333333,-0.211783333333333,107.291428571429,-0.389142857142857,-23.158,264.873666666667,-0.92302,0.0696,-0.46066,0.0907777777777777,-5.82744444444444,0.732333333333333,53.688,0.971733333333333,-0.34815,0.208183333333333,106.46875,-42.175,34.067375,5.125,-0.92305,-0.27765,-0.088275,-88.589,-9.939125,14.0015,242.492,1,1,1,1
24-May-2018 12:22:01,-2048,0.946783333333333,0.0672833333333333,-0.211783333333333,107.291428571429,-0.389142857142857,-23.158,264.873666666667,-0.92302,0.0696,-0.46066,0.0907777777777777,-5.82744444444444,0.732333333333333,53.688,0.971733333333333,-0.34815,0.208183333333333,106.46875,-42.175,34.067375,5.125,-0.92305,-0.27765,-0.088275,-88.589,-9.939125,14.0015,242.492,1,1,1,1
24-May-2018 12:22:01,-2048,0.946783333333333,0.0672833333333333,-0.211783333333333,107.291428571429,-0.389142857142857,-23.158,264.873666666667,-0.92302,0.0696,-0.46066,0.0907777777777777,-5.82744444444444,0.732333333333333,53.688,0.971733333333333,-0.34815,0.208183333333333,106.46875,-42.175,34.067375,5.125,-0.92305,-0.27765,-0.088275,-88.589,-9.939125,14.0015,242.492,1,1,1,1
24-May-2018 12:22:02,-1747.25,0.940616666666667,0.0689166666666667,-0.101033333333333,22.4871428571429,9.17985714285714,-0.540571428571429,382.16075,-0.92515,0.073975,-0.45575,0.0423333333333334,0.326111111111111,0.616666666666667,53.688,0.82152,-0.44602,0.169,21.4514285714286,4.71714285714286,4.01742857142857,4.9902,-0.97276,-0.18724,-0.00726000000000001,-10.0088571428571,-4.21614285714286,-19.5555714285714,448.322,1,1,1,1
24-May-2018 12:22:02,-1747.25,0.940616666666667,0.0689166666666667,-0.101033333333333,22.4871428571429,9.17985714285714,-0.540571428571429,382.16075,-0.92515,0.073975,-0.45575,0.0423333333333334,0.326111111111111,0.616666666666667,53.688,0.82152,-0.44602,0.169,21.4514285714286,4.71714285714286,4.01742857142857,4.9902,-0.97276,-0.18724,-0.00726000000000001,-10.0088571428571,-4.21614285714286,-19.5555714285714,448.322,1,1,1,1
24-May-2018 12:22:02,-1747.25,0.940616666666667,0.0689166666666667,-0.101033333333333,22.4871428571429,9.17985714285714,-0.540571428571429,382.16075,-0.92515,0.073975,-0.45575,0.0423333333333334,0.326111111111111,0.616666666666667,53.688,0.82152,-0.44602,0.169,21.4514285714286,4.71714285714286,4.01742857142857,4.9902,-0.97276,-0.18724,-0.00726000000000001,-10.0088571428571,-4.21614285714286,-19.5555714285714,448.322,1,1,1,1
24-May-2018 12:22:02,-1747.25,0.940616666666667,0.0689166666666667,-0.101033333333333,22.4871428571429,9.17985714285714,-0.540571428571429,382.16075,-0.92515,0.073975,-0.45575,0.0423333333333334,0.326111111111111,0.616666666666667,53.688,0.82152,-0.44602,0.169,21.4514285714286,4.71714285714286,4.01742857142857,4.9902,-0.97276,-0.18724,-0.00726000000000001,-10.0088571428571,-4.21614285714286,-19.5555714285714,448.322,1,1,1,1
24-May-2018 12:22:03,-1287.625,0.94868,0.09886,-0.1448,-0.151714285714285,-0.0325714285714285,-1.65771428571429,465.529666666667,-0.92625,0.072775,-0.455175,0.26925,1.27425,0.495625,52.202,0.817133333333333,-0.378166666666667,0.230583333333333,-10.7071428571429,-28.898,10.2951428571429,7.0895,-0.897066666666667,-0.19,-0.0176833333333333,3.65866666666667,-2.32733333333333,5.79266666666667,417.999,1,1,1,1
24-May-2018 12:22:03,-1287.625,0.94868,0.09886,-0.1448,-0.151714285714285,-0.0325714285714285,-1.65771428571429,465.529666666667,-0.92625,0.072775,-0.455175,0.26925,1.27425,0.495625,52.202,0.817133333333333,-0.378166666666667,0.230583333333333,-10.7071428571429,-28.898,10.2951428571429,7.0895,-0.897066666666667,-0.19,-0.0176833333333333,3.65866666666667,-2.32733333333333,5.79266666666667,417.999,1,1,1,1
24-May-2018 12:22:03,-1287.625,0.94868,0.09886,-0.1448,-0.151714285714285,-0.0325714285714285,-1.65771428571429,465.529666666667,-0.92625,0.072775,-0.455175,0.26925,1.27425,0.495625,52.202,0.817133333333333,-0.378166666666667,0.230583333333333,-10.7071428571429,-28.898,10.2951428571429,7.0895,-0.897066666666667,-0.19,-0.0176833333333333,3.65866666666667,-2.32733333333333,5.79266666666667,417.999,1,1,1,1
24-May-2018 12:22:03,-1287.625,0.94868,0.09886,-0.1448,-0.151714285714285,-0.0325714285714285,-1.65771428571429,465.529666666667,-0.92625,0.072775,-0.455175,0.26925,1.27425,0.495625,52.202,0.817133333333333,-0.378166666666667,0.230583333333333,-10.7071428571429,-28.898,10.2951428571429,7.0895,-0.897066666666667,-0.19,-0.0176833333333333,3.65866666666667,-2.32733333333333,5.79266666666667,417.999,1,1,1,1
24-May-2018 12:22:04,-925.333333333333,0.9449375,0.0579625,-0.116675,12.2043333333333,0.581833333333333,-7.37783333333333,484.849,-0.92462,0.07564,-0.45826,-1.02588888888889,1.36188888888889,0.196888888888889,52.202,0.838985714285714,-0.404928571428571,0.254242857142857,38.99,25.7066666666667,-8.4235,7.40066666666667,-0.927775,-0.233575,-0.089275,4.192125,3.79575,2.14175,426.608,1,1,1,1
24-May-2018 12:22:04,-925.333333333333,0.9449375,0.0579625,-0.116675,12.2043333333333,0.581833333333333,-7.37783333333333,484.849,-0.92462,0.07564,-0.45826,-1.02588888888889,1.36188888888889,0.196888888888889,52.202,0.838985714285714,-0.404928571428571,0.254242857142857,38.99,25.7066666666667,-8.4235,7.40066666666667,-0.927775,-0.233575,-0.089275,4.192125,3.79575,2.14175,426.608,1,1,1,1
24-May-2018 12:22:04,-925.333333333333,0.9449375,0.0579625,-0.116675,12.2043333333333,0.581833333333333,-7.37783333333333,484.849,-0.92462,0.07564,-0.45826,-1.02588888888889,1.36188888888889,0.196888888888889,52.202,0.838985714285714,-0.404928571428571,0.254242857142857,38.99,25.7066666666667,-8.4235,7.40066666666667,-0.927775,-0.233575,-0.089275,4.192125,3.79575,2.14175,426.608,1,1,1,1
24-May-2018 12:22:04,-925.333333333333,0.9449375,0.0579625,-0.116675,12.2043333333333,0.581833333333333,-7.37783333333333,484.849,-0.92462,0.07564,-0.45826,-1.02588888888889,1.36188888888889,0.196888888888889,52.202,0.838985714285714,-0.404928571428571,0.254242857142857,38.99,25.7066666666667,-8.4235,7.40066666666667,-0.927775,-0.233575,-0.089275,4.192125,3.79575,2.14175,426.608,1,1,1,1
24-May-2018 12:22:05,-646.777777777778,0.880375,0.034175,-0.280325,-36.4875,-10.4575,10.02725,497.334333333333,-0.92442,0.07646,-0.4603,0.275375,0.140625,0.465125,52.289,0.866971428571429,-0.459685714285714,0.162857142857143,-36.6152,-17.22,9.1586,8.609,-0.9411,-0.243911111111111,-0.0258777777777778,38.49075,15.1525,-6.73775,448.416,1,1,1,1
24-May-2018 12:22:05,-646.777777777778,0.880375,0.034175,-0.280325,-36.4875,-10.4575,10.02725,497.334333333333,-0.92442,0.07646,-0.4603,0.275375,0.140625,0.465125,52.289,0.866971428571429,-0.459685714285714,0.162857142857143,-36.6152,-17.22,9.1586,8.609,-0.9411,-0.243911111111111,-0.0258777777777778,38.49075,15.1525,-6.73775,448.416,1,1,1,1
24-May-2018 12:22:05,-646.777777777778,0.880375,0.034175,-0.280325,-36.4875,-10.4575,10.02725,497.334333333333,-0.92442,0.07646,-0.4603,0.275375,0.140625,0.465125,52.289,0.866971428571429,-0.459685714285714,0.162857142857143,-36.6152,-17.22,9.1586,8.609,-0.9411,-0.243911111111111,-0.0258777777777778,38.49075,15.1525,-6.73775,448.416,1,1,1,1
24-May-2018 12:22:05,-646.777777777778,0.880375,0.034175,-0.280325,-36.4875,-10.4575,10.02725,497.334333333333,-0.92442,0.07646,-0.4603,0.275375,0.140625,0.465125,52.289,0.866971428571429,-0.459685714285714,0.162857142857143,-36.6152,-17.22,9.1586,8.609,-0.9411,-0.243911111111111,-0.0258777777777778,38.49075,15.1525,-6.73775,448.416,1,1,1,1
24-May-2018 12:22:06,-435,0.899371428571429,0.0493,-0.338542857142857,-124.166666666667,3.34416666666667,37.3833333333333,464.86,-0.92096,0.0741,-0.4593,0.760222222222222,0.896333333333334,0.00866666666666666,52.55,0.91645,-0.275883333333333,0.2112,-96.2,66.0533333333333,-22.3,2.915,-0.9024,-0.25174,-0.15828,96.189,22.256125,-1.6235,662,1,1,1,1
24-May-2018 12:22:06,-435,0.899371428571429,0.0493,-0.338542857142857,-124.166666666667,3.34416666666667,37.3833333333333,464.86,-0.92096,0.0741,-0.4593,0.760222222222222,0.896333333333334,0.00866666666666666,52.55,0.91645,-0.275883333333333,0.2112,-96.2,66.0533333333333,-22.3,2.915,-0.9024,-0.25174,-0.15828,96.189,22.256125,-1.6235,662,1,1,1,1
24-May-2018 12:22:06,-435,0.899371428571429,0.0493,-0.338542857142857,-124.166666666667,3.34416666666667,37.3833333333333,464.86,-0.92096,0.0741,-0.4593,0.760222222222222,0.896333333333334,0.00866666666666666,52.55,0.91645,-0.275883333333333,0.2112,-96.2,66.0533333333333,-22.3,2.915,-0.9024,-0.25174,-0.15828,96.189,22.256125,-1.6235,662,1,1,1,1
24-May-2018 12:22:06,-435,0.899371428571429,0.0493,-0.338542857142857,-124.166666666667,3.34416666666667,37.3833333333333,464.86,-0.92096,0.0741,-0.4593,0.760222222222222,0.896333333333334,0.00866666666666666,52.55,0.91645,-0.275883333333333,0.2112,-96.2,66.0533333333333,-22.3,2.915,-0.9024,-0.25174,-0.15828,96.189,22.256125,-1.6235,662,1,1,1,1
24-May-2018 12:22:07,1472,0.9415625,0.09805,-0.18235,-51.4888888888889,4.34311111111111,10.3938888888889,464.86,-0.9219,0.0761166666666667,-0.4648,0.51225,-0.194625,0.71675,52.4523333333333,0.8831625,-0.3746625,0.0802625,-70.2666666666667,3.88933333333333,10.8526666666667,3.365,-0.92622,-0.2877,-0.13394,59.2768571428571,12.0818571428571,21.1671428571429,546.327,1,1,1,1
24-May-2018 12:22:07,1472,0.9415625,0.09805,-0.18235,-51.4888888888889,4.34311111111111,10.3938888888889,464.86,-0.9219,0.0761166666666667,-0.4648,0.51225,-0.194625,0.71675,52.4523333333333,0.8831625,-0.3746625,0.0802625,-70.2666666666667,3.88933333333333,10.8526666666667,3.365,-0.92622,-0.2877,-0.13394,59.2768571428571,12.0818571428571,21.1671428571429,546.327,1,1,1,1
24-May-2018 12:22:07,1472,0.9415625,0.09805,-0.18235,-51.4888888888889,4.34311111111111,10.3938888888889,464.86,-0.9219,0.0761166666666667,-0.4648,0.51225,-0.194625,0.71675,52.4523333333333,0.8831625,-0.3746625,0.0802625,-70.2666666666667,3.88933333333333,10.8526666666667,3.365,-0.92622,-0.2877,-0.13394,59.2768571428571,12.0818571428571,21.1671428571429,546.327,1,1,1,1
24-May-2018 12:22:07,1472,0.9415625,0.09805,-0.18235,-51.4888888888889,4.34311111111111,10.3938888888889,464.86,-0.9219,0.0761166666666667,-0.4648,0.51225,-0.194625,0.71675,52.4523333333333,0.8831625,-0.3746625,0.0802625,-70.2666666666667,3.88933333333333,10.8526666666667,3.365,-0.92622,-0.2877,-0.13394,59.2768571428571,12.0818571428571,21.1671428571429,546.327,1,1,1,1
