TIME,HELMET_RAW,BELT_ACC_X,BELT_ACC_Y,BELT_ACC_Z,BELT_ANG_X,BELT_ANG_Y,BELT_ANG_Z,BELT_LUMINOSITY,NECK_ACC_X,NECK_ACC_Y,NECK_ACC_Z,NECK_ANG_X,NECK_ANG_Y,NECK_ANG_Z,NECK_LUMINOSITY,PCKT_ACC_X,PCKT_ACC_Y,PCKT_ACC_Z,PCKT_ANG_X,PCKT_ANG_Y,PCKT_ANG_Z,PCKT_LUMINOSITY,WRST_ACC_X,WRST_ACC_Y,WRST_ACC_Z,WRST_ANG_X,WRST_ANG_Y,WRST_ANG_Z,WRST_LUMINOSITY,IR_1,IR_2,IR_3,IR_4
24-May-2018 12:18:41,31.75,0.934916666666667,0.145083333333333,-0.15185,-19.15,-8.05375,1.494625,300.852333333333,-0.9275,0.02178,-0.46048,-0.625666666666667,0.177888888888889,1.10466666666667,54.402,0.936714285714286,-0.251257142857143,0.117742857142857,-8.6425,4.07025,-3.165,4.03975,0.2512,-0.835233333333333,-0.542066666666667,-4.8416,8.1708,8.3414,247.8475,1,1,1,1
24-May-2018 12:18:41,31.75,0.934916666666667,0.145083333333333,-0.15185,-19.15,-8.05375,1.494625,300.852333333333,-0.9275,0.02178,-0.46048,-0.625666666666667,0.177888888888889,1.10466666666667,54.402,0.936714285714286,-0.251257142857143,0.117742857142857,-8.6425,4.07025,-3.165,4.03975,0.2512,-0.835233333333333,-0.542066666666667,-4.8416,8.1708,8.3414,247.8475,1,1,1,1
24-May-2018 12:18:41,31.75,0.934916666666667,0.145083333333333,-0.15185,-19.15,-8.05375,1.494625,300.852333333333,-0.9275,0.02178,-0.46048,-0.625666666666667,0.177888888888889,1.10466666666667,54.402,0.936714285714286,-0.251257142857143,0.117742857142857,-8.6425,4.07025,-3.165,4.03975,0.2512,-0.835233333333333,-0.542066666666667,-4.8416,8.1708,8.3414,247.8475,1,1,1,1
24-May-2018 12:18:41,31.75,0.934916666666667,0.145083333333333,-0.15185,-19.15,-8.05375,1.494625,300.852333333333,-0.9275,0.02178,-0.46048,-0.625666666666667,0.177888888888889,1.10466666666667,54.402,0.936714285714286,-0.251257142857143,0.117742857142857,-8.6425,4.07025,-3.165,4.03975,0.2512,-0.835233333333333,-0.542066666666667,-4.8416,8.1708,8.3414,247.8475,1,1,1,1
24-May-2018 12:18:42,-161.5,0.884657142857143,0.0674571428571429,-0.314885714285714,15.565375,-12.08825,3.0725,300.852333333333,-0.9303,0.01685,-0.44715,-1.44666666666667,-0.885444444444444,0.935222222222222,54.402,0.93585,-0.221375,0.22465,-6.49285714285714,7.08314285714286,-1.27928571428571,3.922,-0.334375,-0.6597,-0.21185,1.9154,16.8658,96.5244,219.8782,1,1,1,1
24-May-2018 12:18:42,-161.5,0.884657142857143,0.0674571428571429,-0.314885714285714,15.565375,-12.08825,3.0725,300.852333333333,-0.9303,0.01685,-0.44715,-1.44666666666667,-0.885444444444444,0.935222222222222,54.402,0.93585,-0.221375,0.22465,-6.49285714285714,7.08314285714286,-1.27928571428571,3.922,-0.334375,-0.6597,-0.21185,1.9154,16.8658,96.5244,219.8782,1,1,1,1
24-May-2018 12:18:42,-161.5,0.884657142857143,0.0674571428571429,-0.314885714285714,15.565375,-12.08825,3.0725,300.852333333333,-0.9303,0.01685,-0.44715,-1.44666666666667,-0.885444444444444,0.935222222222222,54.402,0.93585,-0.221375,0.22465,-6.49285714285714,7.08314285714286,-1.27928571428571,3.922,-0.334375,-0.6597,-0.21185,1.9154,16.8658,96.5244,219.8782,1,1,1,1
24-May-2018 12:18:42,-161.5,0.884657142857143,0.0674571428571429,-0.314885714285714,15.565375,-12.08825,3.0725,300.852333333333,-0.9303,0.01685,-0.44715,-1.44666666666667,-0.885444444444444,0.935222222222222,54.402,0.93585,-0.221375,0.22465,-6.49285714285714,7.08314285714286,-1.27928571428571,3.922,-0.334375,-0.6597,-0.21185,1.9154,16.8658,96.5244,219.8782,1,1,1,1
24-May-2018 12:18:43,13.625,0.878242857142857,0.0191571428571428,-0.343257142857143,9.11614285714286,6.57328571428572,-21.4428571428571,300.852333333333,-0.93595,0.0485,-0.4379,-1.29155555555556,-12.8322222222222,4.64088888888889,54.7004,0.952466666666667,-0.215933333333333,0.203733333333333,22.36,-3.63142857142857,-7.76728571428571,3.932,-0.955616666666666,-0.151183333333333,-0.113966666666667,-41.8025714285714,-0.365857142857143,23.824,586.586,1,1,1,1
24-May-2018 12:18:43,13.625,0.878242857142857,0.0191571428571428,-0.343257142857143,9.11614285714286,6.57328571428572,-21.4428571428571,300.852333333333,-0.93595,0.0485,-0.4379,-1.29155555555556,-12.8322222222222,4.64088888888889,54.7004,0.952466666666667,-0.215933333333333,0.203733333333333,22.36,-3.63142857142857,-7.76728571428571,3.932,-0.955616666666666,-0.151183333333333,-0.113966666666667,-41.8025714285714,-0.365857142857143,23.824,586.586,1,1,1,1
24-May-2018 12:18:43,13.625,0.878242857142857,0.0191571428571428,-0.343257142857143,9.11614285714286,6.57328571428572,-21.4428571428571,300.852333333333,-0.93595,0.0485,-0.4379,-1.29155555555556,-12.8322222222222,4.64088888888889,54.7004,0.952466666666667,-0.215933333333333,0.203733333333333,22.36,-3.63142857142857,-7.76728571428571,3.932,-0.955616666666666,-0.151183333333333,-0.113966666666667,-41.8025714285714,-0.365857142857143,23.824,586.586,1,1,1,1
24-May-2018 12:18:43,13.625,0.878242857142857,0.0191571428571428,-0.343257142857143,9.11614285714286,6.57328571428572,-21.4428571428571,300.852333333333,-0.93595,0.0485,-0.4379,-1.29155555555556,-12.8322222222222,4.64088888888889,54.7004,0.952466666666667,-0.215933333333333,0.203733333333333,22.36,-3.63142857142857,-7.76728571428571,3.932,-0.955616666666666,-0.151183333333333,-0.113966666666667,-41.8025714285714,-0.365857142857143,23.824,586.586,1,1,1,1
24-May-2018 12:18:44,-75.2,0.8616,0.135075,-0.38145,1.63555555555556,-4.967,1.716,300.852333333333,-0.93254,0.03524,-0.41984,-0.805222222222222,0.245666666666667,0.271555555555556,54.775,0.94736,-0.14912,0.20432,5.83,-7.52683333333333,-1.62666666666667,3.77825,-0.931816666666667,-0.236066666666667,-0.130716666666667,36.2684,1.5244,-14.4146,593.510666666667,1,1,1,1
24-May-2018 12:18:44,-75.2,0.8616,0.135075,-0.38145,1.63555555555556,-4.967,1.716,300.852333333333,-0.93254,0.03524,-0.41984,-0.805222222222222,0.245666666666667,0.271555555555556,54.775,0.94736,-0.14912,0.20432,5.83,-7.52683333333333,-1.62666666666667,3.77825,-0.931816666666667,-0.236066666666667,-0.130716666666667,36.2684,1.5244,-14.4146,593.510666666667,1,1,1,1
24-May-2018 12:18:44,-75.2,0.8616,0.135075,-0.38145,1.63555555555556,-4.967,1.716,300.852333333333,-0.93254,0.03524,-0.41984,-0.805222222222222,0.245666666666667,0.271555555555556,54.775,0.94736,-0.14912,0.20432,5.83,-7.52683333333333,-1.62666666666667,3.77825,-0.931816666666667,-0.236066666666667,-0.130716666666667,36.2684,1.5244,-14.4146,593.510666666667,1,1,1,1
24-May-2018 12:18:44,-75.2,0.8616,0.135075,-0.38145,1.63555555555556,-4.967,1.716,300.852333333333,-0.93254,0.03524,-0.41984,-0.805222222222222,0.245666666666667,0.271555555555556,54.775,0.94736,-0.14912,0.20432,5.83,-7.52683333333333,-1.62666666666667,3.77825,-0.931816666666667,-0.236066666666667,-0.130716666666667,36.2684,1.5244,-14.4146,593.510666666667,1,1,1,1
24-May-2018 12:18:45,-19.2,0.9098,0.2258,-0.253075,-16.174,5.2865,4.9495,267.453,-0.9368,0.03995,-0.4195,1.96544444444444,-0.471333333333334,1.08455555555556,52.632,0.84984,-0.13834,0.49252,-19.4775,36.8875,-6.73975,3.727,-0.935416666666667,-0.304816666666667,-0.168833333333333,85.427,27.256,8.8875,511.829333333333,1,1,1,1
24-May-2018 12:18:45,-19.2,0.9098,0.2258,-0.253075,-16.174,5.2865,4.9495,267.453,-0.9368,0.03995,-0.4195,1.96544444444444,-0.471333333333334,1.08455555555556,52.632,0.84984,-0.13834,0.49252,-19.4775,36.8875,-6.73975,3.727,-0.935416666666667,-0.304816666666667,-0.168833333333333,85.427,27.256,8.8875,511.829333333333,1,1,1,1
24-May-2018 12:18:45,-19.2,0.9098,0.2258,-0.253075,-16.174,5.2865,4.9495,267.453,-0.9368,0.03995,-0.4195,1.96544444444444,-0.471333333333334,1.08455555555556,52.632,0.84984,-0.13834,0.49252,-19.4775,36.8875,-6.73975,3.727,-0.935416666666667,-0.304816666666667,-0.168833333333333,85.427,27.256,8.8875,511.829333333333,1,1,1,1
24-May-2018 12:18:45,-19.2,0.9098,0.2258,-0.253075,-16.174,5.2865,4.9495,267.453,-0.9368,0.03995,-0.4195,1.96544444444444,-0.471333333333334,1.08455555555556,52.632,0.84984,-0.13834,0.49252,-19.4775,36.8875,-6.73975,3.727,-0.935416666666667,-0.304816666666667,-0.168833333333333,85.427,27.256,8.8875,511.829333333333,1,1,1,1
24-May-2018 12:18:46,20.7,0.85146,0.13188,-0.2312,-42.56,-0.4114,17.9668,259.899833333333,-0.94915,0.046825,-0.441475,0.843333333333333,10.0858888888889,-3.22222222222222,50.489,0.86052,-0.21302,0.30698,-73.7666666666667,-11.96,-0.159333333333334,3.9315,-0.94298,-0.20556,-0.0859,28.3943333333333,-1.73783333333333,-6.71733333333333,429.97175,1,1,1,1
24-May-2018 12:18:46,20.7,0.85146,0.13188,-0.2312,-42.56,-0.4114,17.9668,259.899833333333,-0.94915,0.046825,-0.441475,0.843333333333333,10.0858888888889,-3.22222222222222,50.489,0.86052,-0.21302,0.30698,-73.7666666666667,-11.96,-0.159333333333334,3.9315,-0.94298,-0.20556,-0.0859,28.3943333333333,-1.73783333333333,-6.71733333333333,429.97175,1,1,1,1
24-May-2018 12:18:46,20.7,0.85146,0.13188,-0.2312,-42.56,-0.4114,17.9668,259.899833333333,-0.94915,0.046825,-0.441475,0.843333333333333,10.0858888888889,-3.22222222222222,50.489,0.86052,-0.21302,0.30698,-73.7666666666667,-11.96,-0.159333333333334,3.9315,-0.94298,-0.20556,-0.0859,28.3943333333333,-1.73783333333333,-6.71733333333333,429.97175,1,1,1,1
24-May-2018 12:18:46,20.7,0.85146,0.13188,-0.2312,-42.56,-0.4114,17.9668,259.899833333333,-0.94915,0.046825,-0.441475,0.843333333333333,10.0858888888889,-3.22222222222222,50.489,0.86052,-0.21302,0.30698,-73.7666666666667,-11.96,-0.159333333333334,3.9315,-0.94298,-0.20556,-0.0859,28.3943333333333,-1.73783333333333,-6.71733333333333,429.97175,1,1,1,1
24-May-2018 12:18:47,21.2222222222222,0.89648,0.18538,-0.2728,-10.5558571428571,6.54057142857143,6.40428571428571,263.028,-0.9056,0.023675,-0.455775,-0.158666666666667,21.7164444444444,5.91366666666667,50.489,1.0395,-0.165366666666667,0.406866666666667,36.3433333333333,56.6366666666667,-15.644,3.596,-0.9287,-0.199883333333333,-0.118516666666667,6.439,-12.8294,3.21959999999999,383.305666666667,1,1,1,1
24-May-2018 12:18:47,21.2222222222222,0.89648,0.18538,-0.2728,-10.5558571428571,6.54057142857143,6.40428571428571,263.028,-0.9056,0.023675,-0.455775,-0.158666666666667,21.7164444444444,5.91366666666667,50.489,1.0395,-0.165366666666667,0.406866666666667,36.3433333333333,56.6366666666667,-15.644,3.596,-0.9287,-0.199883333333333,-0.118516666666667,6.439,-12.8294,3.21959999999999,383.305666666667,1,1,1,1
24-May-2018 12:18:47,21.2222222222222,0.89648,0.18538,-0.2728,-10.5558571428571,6.54057142857143,6.40428571428571,263.028,-0.9056,0.023675,-0.455775,-0.158666666666667,21.7164444444444,5.91366666666667,50.489,1.0395,-0.165366666666667,0.406866666666667,36.3433333333333,56.6366666666667,-15.644,3.596,-0.9287,-0.199883333333333,-0.118516666666667,6.439,-12.8294,3.21959999999999,383.305666666667,1,1,1,1
24-May-2018 12:18:47,21.2222222222222,0.89648,0.18538,-0.2728,-10.5558571428571,6.54057142857143,6.40428571428571,263.028,-0.9056,0.023675,-0.455775,-0.158666666666667,21.7164444444444,5.91366666666667,50.489,1.0395,-0.165366666666667,0.406866666666667,36.3433333333333,56.6366666666667,-15.644,3.596,-0.9287,-0.199883333333333,-0.118516666666667,6.439,-12.8294,3.21959999999999,383.305666666667,1,1,1,1
24-May-2018 12:18:48,125,0.937933333333333,0.0978333333333333,-0.254433333333333,-24.0692,-4.626,5.9464,307.513,-0.8742,0.03554,-0.55274,0.092375,5.631625,-1.865,55.717,0.840666666666667,-0.2375,0.299466666666667,-46.184,-31.041,8.108,4.313,-0.8668,-0.270875,-0.127175,-13.5602,-1.561,-14.439,311.588,0,0,1,1
24-May-2018 12:18:48,125,0.937933333333333,0.0978333333333333,-0.254433333333333,-24.0692,-4.626,5.9464,307.513,-0.8742,0.03554,-0.55274,0.092375,5.631625,-1.865,55.717,0.840666666666667,-0.2375,0.299466666666667,-46.184,-31.041,8.108,4.313,-0.8668,-0.270875,-0.127175,-13.5602,-1.561,-14.439,311.588,0,0,1,1
24-May-2018 12:18:48,125,0.937933333333333,0.0978333333333333,-0.254433333333333,-24.0692,-4.626,5.9464,307.513,-0.8742,0.03554,-0.55274,0.092375,5.631625,-1.865,55.717,0.840666666666667,-0.2375,0.299466666666667,-46.184,-31.041,8.108,4.313,-0.8668,-0.270875,-0.127175,-13.5602,-1.561,-14.439,311.588,0,0,1,1
24-May-2018 12:18:48,125,0.937933333333333,0.0978333333333333,-0.254433333333333,-24.0692,-4.626,5.9464,307.513,-0.8742,0.03554,-0.55274,0.092375,5.631625,-1.865,55.717,0.840666666666667,-0.2375,0.299466666666667,-46.184,-31.041,8.108,4.313,-0.8668,-0.270875,-0.127175,-13.5602,-1.561,-14.439,311.588,0,0,1,1
24-May-2018 12:18:49,-19.2,0.89875,0.209316666666667,-0.34675,-96.3714285714286,-17.237,33.95,281.547666666667,-0.86586,0.03662,-0.56626,-0.332625,3.225375,1.5955,55.717,1.159075,-0.219325,0.3148,-38.3975,16.37075,-20.5,2.988,-0.906685714285714,-0.327828571428571,-0.195442857142857,49.4514,16.0974,9.7682,401.533,0,0,1,1
24-May-2018 12:18:49,-19.2,0.89875,0.209316666666667,-0.34675,-96.3714285714286,-17.237,33.95,281.547666666667,-0.86586,0.03662,-0.56626,-0.332625,3.225375,1.5955,55.717,1.159075,-0.219325,0.3148,-38.3975,16.37075,-20.5,2.988,-0.906685714285714,-0.327828571428571,-0.195442857142857,49.4514,16.0974,9.7682,401.533,0,0,1,1
24-May-2018 12:18:49,-19.2,0.89875,0.209316666666667,-0.34675,-96.3714285714286,-17.237,33.95,281.547666666667,-0.86586,0.03662,-0.56626,-0.332625,3.225375,1.5955,55.717,1.159075,-0.219325,0.3148,-38.3975,16.37075,-20.5,2.988,-0.906685714285714,-0.327828571428571,-0.195442857142857,49.4514,16.0974,9.7682,401.533,0,0,1,1
24-May-2018 12:18:49,-19.2,0.89875,0.209316666666667,-0.34675,-96.3714285714286,-17.237,33.95,281.547666666667,-0.86586,0.03662,-0.56626,-0.332625,3.225375,1.5955,55.717,1.159075,-0.219325,0.3148,-38.3975,16.37075,-20.5,2.988,-0.906685714285714,-0.327828571428571,-0.195442857142857,49.4514,16.0974,9.7682,401.533,0,0,1,1
24-May-2018 12:18:50,31.2,0.937142857142857,0.118471428571429,-0.260514285714286,-39.4285714285714,4.14728571428571,11.2705714285714,330.91,-0.87986,0.02208,-0.58294,0.516666666666666,3.38077777777778,-6.72266666666667,60.134,0.87615,-0.1977,0.286333333333333,-48.8,19.1066666666667,-18.2416666666667,4.813,-0.901575,-0.249575,-0.101175,68.9266,14.1706,8.6342,330.977,1,1,1,1
24-May-2018 12:18:50,31.2,0.937142857142857,0.118471428571429,-0.260514285714286,-39.4285714285714,4.14728571428571,11.2705714285714,330.91,-0.87986,0.02208,-0.58294,0.516666666666666,3.38077777777778,-6.72266666666667,60.134,0.87615,-0.1977,0.286333333333333,-48.8,19.1066666666667,-18.2416666666667,4.813,-0.901575,-0.249575,-0.101175,68.9266,14.1706,8.6342,330.977,1,1,1,1
24-May-2018 12:18:50,31.2,0.937142857142857,0.118471428571429,-0.260514285714286,-39.4285714285714,4.14728571428571,11.2705714285714,330.91,-0.87986,0.02208,-0.58294,0.516666666666666,3.38077777777778,-6.72266666666667,60.134,0.87615,-0.1977,0.286333333333333,-48.8,19.1066666666667,-18.2416666666667,4.813,-0.901575,-0.249575,-0.101175,68.9266,14.1706,8.6342,330.977,1,1,1,1
24-May-2018 12:18:50,31.2,0.937142857142857,0.118471428571429,-0.260514285714286,-39.4285714285714,4.14728571428571,11.2705714285714,330.91,-0.87986,0.02208,-0.58294,0.516666666666666,3.38077777777778,-6.72266666666667,60.134,0.87615,-0.1977,0.286333333333333,-48.8,19.1066666666667,-18.2416666666667,4.813,-0.901575,-0.249575,-0.101175,68.9266,14.1706,8.6342,330.977,1,1,1,1
24-May-2018 12:18:51,43.7777777777778,0.93065,0.1407,-0.254316666666667,1.884,8.8758,0.0616,401.198666666667,-0.84322,-0.000340000000000001,-0.58422,18.6215714285714,19.9005714285714,4.00042857142857,60.1793333333333,1.02858,-0.26596,0.26362,30.96,21.7083333333333,0.9985,6.355,-0.916466666666667,-0.252116666666667,-0.127716666666667,7.51033333333333,0.559,-16.1076666666667,383.464,1,1,1,1
24-May-2018 12:18:51,43.7777777777778,0.93065,0.1407,-0.254316666666667,1.884,8.8758,0.0616,401.198666666667,-0.84322,-0.000340000000000001,-0.58422,18.6215714285714,19.9005714285714,4.00042857142857,60.1793333333333,1.02858,-0.26596,0.26362,30.96,21.7083333333333,0.9985,6.355,-0.916466666666667,-0.252116666666667,-0.127716666666667,7.51033333333333,0.559,-16.1076666666667,383.464,1,1,1,1
24-May-2018 12:18:51,43.7777777777778,0.93065,0.1407,-0.254316666666667,1.884,8.8758,0.0616,401.198666666667,-0.84322,-0.000340000000000001,-0.58422,18.6215714285714,19.9005714285714,4.00042857142857,60.1793333333333,1.02858,-0.26596,0.26362,30.96,21.7083333333333,0.9985,6.355,-0.916466666666667,-0.252116666666667,-0.127716666666667,7.51033333333333,0.559,-16.1076666666667,383.464,1,1,1,1
24-May-2018 12:18:51,43.7777777777778,0.93065,0.1407,-0.254316666666667,1.884,8.8758,0.0616,401.198666666667,-0.84322,-0.000340000000000001,-0.58422,18.6215714285714,19.9005714285714,4.00042857142857,60.1793333333333,1.02858,-0.26596,0.26362,30.96,21.7083333333333,0.9985,6.355,-0.916466666666667,-0.252116666666667,-0.127716666666667,7.51033333333333,0.559,-16.1076666666667,383.464,1,1,1,1
24-May-2018 12:18:52,24.2857142857143,0.9454875,0.0538125,-0.2326125,10.2761428571429,0.349,2.30242857142857,401.198666666667,-0.85985,-0.01175,-0.591275,6.0303,-19.7209,0.441,60.27,0.96622,-0.3161,0.23462,5.22,-36,7.94933333333333,7.59,-0.8956,-0.3358,0.006425,-99.66375,-2.33225,-1.265,477.9036,1,1,1,1
24-May-2018 12:18:52,24.2857142857143,0.9454875,0.0538125,-0.2326125,10.2761428571429,0.349,2.30242857142857,401.198666666667,-0.85985,-0.01175,-0.591275,6.0303,-19.7209,0.441,60.27,0.96622,-0.3161,0.23462,5.22,-36,7.94933333333333,7.59,-0.8956,-0.3358,0.006425,-99.66375,-2.33225,-1.265,477.9036,1,1,1,1
24-May-2018 12:18:52,24.2857142857143,0.9454875,0.0538125,-0.2326125,10.2761428571429,0.349,2.30242857142857,401.198666666667,-0.85985,-0.01175,-0.591275,6.0303,-19.7209,0.441,60.27,0.96622,-0.3161,0.23462,5.22,-36,7.94933333333333,7.59,-0.8956,-0.3358,0.006425,-99.66375,-2.33225,-1.265,477.9036,1,1,1,1
24-May-2018 12:18:52,24.2857142857143,0.9454875,0.0538125,-0.2326125,10.2761428571429,0.349,2.30242857142857,401.198666666667,-0.85985,-0.01175,-0.591275,6.0303,-19.7209,0.441,60.27,0.96622,-0.3161,0.23462,5.22,-36,7.94933333333333,7.59,-0.8956,-0.3358,0.006425,-99.66375,-2.33225,-1.265,477.9036,1,1,1,1
24-May-2018 12:18:53,55.6,0.9246,0.1339375,-0.288675,-24.484875,-12.941375,6.323,401.198666666667,-0.88046,-0.02592,-0.56612,2.470125,5.686375,2.06725,60.27,0.904016666666667,-0.200383333333333,0.219733333333333,-9.865,2.21016666666667,4.8805,8.54725,-0.983066666666667,-0.29805,-0.11835,17.362875,-4.954125,-4.085125,500.725,1,1,1,1
24-May-2018 12:18:53,55.6,0.9246,0.1339375,-0.288675,-24.484875,-12.941375,6.323,401.198666666667,-0.88046,-0.02592,-0.56612,2.470125,5.686375,2.06725,60.27,0.904016666666667,-0.200383333333333,0.219733333333333,-9.865,2.21016666666667,4.8805,8.54725,-0.983066666666667,-0.29805,-0.11835,17.362875,-4.954125,-4.085125,500.725,1,1,1,1
24-May-2018 12:18:53,55.6,0.9246,0.1339375,-0.288675,-24.484875,-12.941375,6.323,401.198666666667,-0.88046,-0.02592,-0.56612,2.470125,5.686375,2.06725,60.27,0.904016666666667,-0.200383333333333,0.219733333333333,-9.865,2.21016666666667,4.8805,8.54725,-0.983066666666667,-0.29805,-0.11835,17.362875,-4.954125,-4.085125,500.725,1,1,1,1
24-May-2018 12:18:53,55.6,0.9246,0.1339375,-0.288675,-24.484875,-12.941375,6.323,401.198666666667,-0.88046,-0.02592,-0.56612,2.470125,5.686375,2.06725,60.27,0.904016666666667,-0.200383333333333,0.219733333333333,-9.865,2.21016666666667,4.8805,8.54725,-0.983066666666667,-0.29805,-0.11835,17.362875,-4.954125,-4.085125,500.725,1,1,1,1
24-May-2018 12:18:54,80.5714285714286,0.8486875,0.2128875,-0.3911,-97.6571428571429,-5.48514285714286,40.4414285714286,401.198666666667,-0.87475,-0.0184,-0.565025,-9.2446,9.3362,1.2098,53.6866666666667,0.926685714285714,-0.194171428571429,0.230171428571429,-102.56,13.5844,-26.394,6.68366666666667,-0.913366666666667,-0.220233333333333,-0.3774,99.988,25.817,9.3538,471.295,1,1,1,1
24-May-2018 12:18:54,80.5714285714286,0.8486875,0.2128875,-0.3911,-97.6571428571429,-5.48514285714286,40.4414285714286,401.198666666667,-0.87475,-0.0184,-0.565025,-9.2446,9.3362,1.2098,53.6866666666667,0.926685714285714,-0.194171428571429,0.230171428571429,-102.56,13.5844,-26.394,6.68366666666667,-0.913366666666667,-0.220233333333333,-0.3774,99.988,25.817,9.3538,471.295,1,1,1,1
24-May-2018 12:18:54,80.5714285714286,0.8486875,0.2128875,-0.3911,-97.6571428571429,-5.48514285714286,40.4414285714286,401.198666666667,-0.87475,-0.0184,-0.565025,-9.2446,9.3362,1.2098,53.6866666666667,0.926685714285714,-0.194171428571429,0.230171428571429,-102.56,13.5844,-26.394,6.68366666666667,-0.913366666666667,-0.220233333333333,-0.3774,99.988,25.817,9.3538,471.295,1,1,1,1
24-May-2018 12:18:54,80.5714285714286,0.8486875,0.2128875,-0.3911,-97.6571428571429,-5.48514285714286,40.4414285714286,401.198666666667,-0.87475,-0.0184,-0.565025,-9.2446,9.3362,1.2098,53.6866666666667,0.926685714285714,-0.194171428571429,0.230171428571429,-102.56,13.5844,-26.394,6.68366666666667,-0.913366666666667,-0.220233333333333,-0.3774,99.988,25.817,9.3538,471.295,1,1,1,1
24-May-2018 12:18:55,159.375,0.923266666666667,0.0892888888888889,-0.205144444444444,-49.3244285714286,-0.646,21.2164285714286,321.404,-0.85258,0.02108,-0.57464,-14.1288888888889,0.523,-3.27,50.395,0.894175,-0.303975,0.1328,-80.6166666666667,4.5045,1.9535,3.32225,-0.87238,-0.30568,-0.05136,93.6238571428571,-1.06257142857143,8.432,523.093,1,1,1,1
24-May-2018 12:18:55,159.375,0.923266666666667,0.0892888888888889,-0.205144444444444,-49.3244285714286,-0.646,21.2164285714286,321.404,-0.85258,0.02108,-0.57464,-14.1288888888889,0.523,-3.27,50.395,0.894175,-0.303975,0.1328,-80.6166666666667,4.5045,1.9535,3.32225,-0.87238,-0.30568,-0.05136,93.6238571428571,-1.06257142857143,8.432,523.093,1,1,1,1
24-May-2018 12:18:55,159.375,0.923266666666667,0.0892888888888889,-0.205144444444444,-49.3244285714286,-0.646,21.2164285714286,321.404,-0.85258,0.02108,-0.57464,-14.1288888888889,0.523,-3.27,50.395,0.894175,-0.303975,0.1328,-80.6166666666667,4.5045,1.9535,3.32225,-0.87238,-0.30568,-0.05136,93.6238571428571,-1.06257142857143,8.432,523.093,1,1,1,1
24-May-2018 12:18:55,159.375,0.923266666666667,0.0892888888888889,-0.205144444444444,-49.3244285714286,-0.646,21.2164285714286,321.404,-0.85258,0.02108,-0.57464,-14.1288888888889,0.523,-3.27,50.395,0.894175,-0.303975,0.1328,-80.6166666666667,4.5045,1.9535,3.32225,-0.87238,-0.30568,-0.05136,93.6238571428571,-1.06257142857143,8.432,523.093,1,1,1,1
24-May-2018 12:18:56,7.9,0.824825,0.07695,-0.2495,-10.23775,2.2675,-10.271,302.449,-0.85705,0.049275,-0.6011,-6.57911111111111,4.82366666666667,5.33888888888889,51.512,0.937471428571429,-0.288628571428572,0.322685714285714,20.08,2.045,-4.005,3.407,-0.890657142857143,-0.287614285714286,-0.0432857142857143,-12.3854285714286,12.5,-1.94257142857143,474.5485,1,1,1,1
24-May-2018 12:18:56,7.9,0.824825,0.07695,-0.2495,-10.23775,2.2675,-10.271,302.449,-0.85705,0.049275,-0.6011,-6.57911111111111,4.82366666666667,5.33888888888889,51.512,0.937471428571429,-0.288628571428572,0.322685714285714,20.08,2.045,-4.005,3.407,-0.890657142857143,-0.287614285714286,-0.0432857142857143,-12.3854285714286,12.5,-1.94257142857143,474.5485,1,1,1,1
24-May-2018 12:18:56,7.9,0.824825,0.07695,-0.2495,-10.23775,2.2675,-10.271,302.449,-0.85705,0.049275,-0.6011,-6.57911111111111,4.82366666666667,5.33888888888889,51.512,0.937471428571429,-0.288628571428572,0.322685714285714,20.08,2.045,-4.005,3.407,-0.890657142857143,-0.287614285714286,-0.0432857142857143,-12.3854285714286,12.5,-1.94257142857143,474.5485,1,1,1,1
24-May-2018 12:18:56,7.9,0.824825,0.07695,-0.2495,-10.23775,2.2675,-10.271,302.449,-0.85705,0.049275,-0.6011,-6.57911111111111,4.82366666666667,5.33888888888889,51.512,0.937471428571429,-0.288628571428572,0.322685714285714,20.08,2.045,-4.005,3.407,-0.890657142857143,-0.287614285714286,-0.0432857142857143,-12.3854285714286,12.5,-1.94257142857143,474.5485,1,1,1,1
24-May-2018 12:18:57,52.1111111111111,0.93316,0.04628,-0.1807,-4.29175,-0.681,0.06875,282.705666666667,-0.837266666666667,0.0480333333333333,-0.601633333333333,2.83971428571429,0.734714285714286,2.71757142857143,54.863,0.91125,-0.36505,0.1121,-33.425,-36.625,11.88925,3.8425,-0.960285714285714,-0.210171428571429,-0.0632571428571429,50.939,-0.1708,-5.8534,349.105,1,1,1,1
24-May-2018 12:18:57,52.1111111111111,0.93316,0.04628,-0.1807,-4.29175,-0.681,0.06875,282.705666666667,-0.837266666666667,0.0480333333333333,-0.601633333333333,2.83971428571429,0.734714285714286,2.71757142857143,54.863,0.91125,-0.36505,0.1121,-33.425,-36.625,11.88925,3.8425,-0.960285714285714,-0.210171428571429,-0.0632571428571429,50.939,-0.1708,-5.8534,349.105,1,1,1,1
24-May-2018 12:18:57,52.1111111111111,0.93316,0.04628,-0.1807,-4.29175,-0.681,0.06875,282.705666666667,-0.837266666666667,0.0480333333333333,-0.601633333333333,2.83971428571429,0.734714285714286,2.71757142857143,54.863,0.91125,-0.36505,0.1121,-33.425,-36.625,11.88925,3.8425,-0.960285714285714,-0.210171428571429,-0.0632571428571429,50.939,-0.1708,-5.8534,349.105,1,1,1,1
24-May-2018 12:18:57,52.1111111111111,0.93316,0.04628,-0.1807,-4.29175,-0.681,0.06875,282.705666666667,-0.837266666666667,0.0480333333333333,-0.601633333333333,2.83971428571429,0.734714285714286,2.71757142857143,54.863,0.91125,-0.36505,0.1121,-33.425,-36.625,11.88925,3.8425,-0.960285714285714,-0.210171428571429,-0.0632571428571429,50.939,-0.1708,-5.8534,349.105,1,1,1,1
24-May-2018 12:18:58,108.285714285714,0.937725,0.075625,-0.192625,-38.3383333333333,-4.08516666666667,11.7488333333333,305.849,-0.84085,0.04495,-0.61435,3.07588888888889,1.96511111111111,1.57177777777778,54.863,0.9856,-0.344566666666667,0.35425,-17.1348333333333,13.0818333333333,-5.08666666666667,3.515,-0.994525,-0.29385,-0.0382,12.8172,8.5732,7.9268,373.9895,1,0,1,1
24-May-2018 12:18:58,108.285714285714,0.937725,0.075625,-0.192625,-38.3383333333333,-4.08516666666667,11.7488333333333,305.849,-0.84085,0.04495,-0.61435,3.07588888888889,1.96511111111111,1.57177777777778,54.863,0.9856,-0.344566666666667,0.35425,-17.1348333333333,13.0818333333333,-5.08666666666667,3.515,-0.994525,-0.29385,-0.0382,12.8172,8.5732,7.9268,373.9895,1,0,1,1
24-May-2018 12:18:58,108.285714285714,0.937725,0.075625,-0.192625,-38.3383333333333,-4.08516666666667,11.7488333333333,305.849,-0.84085,0.04495,-0.61435,3.07588888888889,1.96511111111111,1.57177777777778,54.863,0.9856,-0.344566666666667,0.35425,-17.1348333333333,13.0818333333333,-5.08666666666667,3.515,-0.994525,-0.29385,-0.0382,12.8172,8.5732,7.9268,373.9895,1,0,1,1
24-May-2018 12:18:58,108.285714285714,0.937725,0.075625,-0.192625,-38.3383333333333,-4.08516666666667,11.7488333333333,305.849,-0.84085,0.04495,-0.61435,3.07588888888889,1.96511111111111,1.57177777777778,54.863,0.9856,-0.344566666666667,0.35425,-17.1348333333333,13.0818333333333,-5.08666666666667,3.515,-0.994525,-0.29385,-0.0382,12.8172,8.5732,7.9268,373.9895,1,0,1,1
24-May-2018 12:18:59,33.375,0.900542857142857,0.1997,-0.327857142857143,-88.7,-1.02942857142857,37.1185714285714,258.0755,-0.83596,0.0413,-0.61822,1.4998,0.6731,0.1045,54.863,0.94215,-0.1951,0.3488,-66.6675,7.935875,-26.1825,3.2835,-0.90426,-0.21864,-0.29914,79.733,23.939,25.439,368.787,1,1,1,1
24-May-2018 12:18:59,33.375,0.900542857142857,0.1997,-0.327857142857143,-88.7,-1.02942857142857,37.1185714285714,258.0755,-0.83596,0.0413,-0.61822,1.4998,0.6731,0.1045,54.863,0.94215,-0.1951,0.3488,-66.6675,7.935875,-26.1825,3.2835,-0.90426,-0.21864,-0.29914,79.733,23.939,25.439,368.787,1,1,1,1
24-May-2018 12:18:59,33.375,0.900542857142857,0.1997,-0.327857142857143,-88.7,-1.02942857142857,37.1185714285714,258.0755,-0.83596,0.0413,-0.61822,1.4998,0.6731,0.1045,54.863,0.94215,-0.1951,0.3488,-66.6675,7.935875,-26.1825,3.2835,-0.90426,-0.21864,-0.29914,79.733,23.939,25.439,368.787,1,1,1,1
24-May-2018 12:18:59,33.375,0.900542857142857,0.1997,-0.327857142857143,-88.7,-1.02942857142857,37.1185714285714,258.0755,-0.83596,0.0413,-0.61822,1.4998,0.6731,0.1045,54.863,0.94215,-0.1951,0.3488,-66.6675,7.935875,-26.1825,3.2835,-0.90426,-0.21864,-0.29914,79.733,23.939,25.439,368.787,1,1,1,1
24-May-2018 12:19:00,21.4444444444444,0.938066666666667,0.107566666666667,-0.134216666666667,-54.615,-4.831625,12.56575,363.556,-0.84335,0.0394,-0.61165,0.642,-1.76625,-0.128625,59.603,0.91874,-0.28756,0.0864,-86.0333333333333,4.21666666666667,7.5085,4.62575,-0.9521,-0.28555,-0.186375,82.4085,25.686,17.60675,398.073,0,1,1,1
24-May-2018 12:19:00,21.4444444444444,0.938066666666667,0.107566666666667,-0.134216666666667,-54.615,-4.831625,12.56575,363.556,-0.84335,0.0394,-0.61165,0.642,-1.76625,-0.128625,59.603,0.91874,-0.28756,0.0864,-86.0333333333333,4.21666666666667,7.5085,4.62575,-0.9521,-0.28555,-0.186375,82.4085,25.686,17.60675,398.073,0,1,1,1
24-May-2018 12:19:00,21.4444444444444,0.938066666666667,0.107566666666667,-0.134216666666667,-54.615,-4.831625,12.56575,363.556,-0.84335,0.0394,-0.61165,0.642,-1.76625,-0.128625,59.603,0.91874,-0.28756,0.0864,-86.0333333333333,4.21666666666667,7.5085,4.62575,-0.9521,-0.28555,-0.186375,82.4085,25.686,17.60675,398.073,0,1,1,1
24-May-2018 12:19:00,21.4444444444444,0.938066666666667,0.107566666666667,-0.134216666666667,-54.615,-4.831625,12.56575,363.556,-0.84335,0.0394,-0.61165,0.642,-1.76625,-0.128625,59.603,0.91874,-0.28756,0.0864,-86.0333333333333,4.21666666666667,7.5085,4.62575,-0.9521,-0.28555,-0.186375,82.4085,25.686,17.60675,398.073,0,1,1,1
24-May-2018 12:19:01,40,0.920942857142857,0.106814285714286,-0.238471428571429,-10.6496666666667,6.60833333333333,-2.63516666666667,415.733,-0.84766,0.04302,-0.60298,-1.069,-2.14,-0.0166,59.603,0.94315,-0.261533333333333,0.10145,30.088,35.64,-8.6112,6.22125,-0.9131,-0.3212,-0.0611666666666667,42.8456666666667,11.0976666666667,-3.059,341.14,1,1,1,1
24-May-2018 12:19:01,40,0.920942857142857,0.106814285714286,-0.238471428571429,-10.6496666666667,6.60833333333333,-2.63516666666667,415.733,-0.84766,0.04302,-0.60298,-1.069,-2.14,-0.0166,59.603,0.94315,-0.261533333333333,0.10145,30.088,35.64,-8.6112,6.22125,-0.9131,-0.3212,-0.0611666666666667,42.8456666666667,11.0976666666667,-3.059,341.14,1,1,1,1
24-May-2018 12:19:01,40,0.920942857142857,0.106814285714286,-0.238471428571429,-10.6496666666667,6.60833333333333,-2.63516666666667,415.733,-0.84766,0.04302,-0.60298,-1.069,-2.14,-0.0166,59.603,0.94315,-0.261533333333333,0.10145,30.088,35.64,-8.6112,6.22125,-0.9131,-0.3212,-0.0611666666666667,42.8456666666667,11.0976666666667,-3.059,341.14,1,1,1,1
24-May-2018 12:19:01,40,0.920942857142857,0.106814285714286,-0.238471428571429,-10.6496666666667,6.60833333333333,-2.63516666666667,415.733,-0.84766,0.04302,-0.60298,-1.069,-2.14,-0.0166,59.603,0.94315,-0.261533333333333,0.10145,30.088,35.64,-8.6112,6.22125,-0.9131,-0.3212,-0.0611666666666667,42.8456666666667,11.0976666666667,-3.059,341.14,1,1,1,1
24-May-2018 12:19:02,57.4,0.965814285714286,0.0126857142857143,-0.196385714285714,13.4116666666667,4.361,0.716166666666667,425.277,-0.854225,0.0448,-0.594875,-1.5115,-2.10833333333333,1.62616666666667,59.603,0.908083333333333,-0.378616666666667,0.0787,46.6016666666667,-10.8133333333333,3.95316666666667,6.60775,-0.97662,-0.24832,0.00826,1.6958,9.2562,-41.0122,583.307,1,1,1,1
24-May-2018 12:19:02,57.4,0.965814285714286,0.0126857142857143,-0.196385714285714,13.4116666666667,4.361,0.716166666666667,425.277,-0.854225,0.0448,-0.594875,-1.5115,-2.10833333333333,1.62616666666667,59.603,0.908083333333333,-0.378616666666667,0.0787,46.6016666666667,-10.8133333333333,3.95316666666667,6.60775,-0.97662,-0.24832,0.00826,1.6958,9.2562,-41.0122,583.307,1,1,1,1
24-May-2018 12:19:02,57.4,0.965814285714286,0.0126857142857143,-0.196385714285714,13.4116666666667,4.361,0.716166666666667,425.277,-0.854225,0.0448,-0.594875,-1.5115,-2.10833333333333,1.62616666666667,59.603,0.908083333333333,-0.378616666666667,0.0787,46.6016666666667,-10.8133333333333,3.95316666666667,6.60775,-0.97662,-0.24832,0.00826,1.6958,9.2562,-41.0122,583.307,1,1,1,1
24-May-2018 12:19:02,57.4,0.965814285714286,0.0126857142857143,-0.196385714285714,13.4116666666667,4.361,0.716166666666667,425.277,-0.854225,0.0448,-0.594875,-1.5115,-2.10833333333333,1.62616666666667,59.603,0.908083333333333,-0.378616666666667,0.0787,46.6016666666667,-10.8133333333333,3.95316666666667,6.60775,-0.97662,-0.24832,0.00826,1.6958,9.2562,-41.0122,583.307,1,1,1,1
24-May-2018 12:19:03,33.7,0.954714285714286,0.0918571428571429,-0.208714285714286,24.8216666666667,-1.72,-15.513,425.277,-0.857125,0.055925,-0.585125,-3.01088888888889,-3.14444444444444,2.41866666666667,57.646,1.0429,-0.2209,0.4193,45.145,18.66,9.4242,8.005,-1.04365,-0.255825,-0.0277,-17.5974,-17.1098,-5.6462,487.742,1,1,1,1
24-May-2018 12:19:03,33.7,0.954714285714286,0.0918571428571429,-0.208714285714286,24.8216666666667,-1.72,-15.513,425.277,-0.857125,0.055925,-0.585125,-3.01088888888889,-3.14444444444444,2.41866666666667,57.646,1.0429,-0.2209,0.4193,45.145,18.66,9.4242,8.005,-1.04365,-0.255825,-0.0277,-17.5974,-17.1098,-5.6462,487.742,1,1,1,1
24-May-2018 12:19:03,33.7,0.954714285714286,0.0918571428571429,-0.208714285714286,24.8216666666667,-1.72,-15.513,425.277,-0.857125,0.055925,-0.585125,-3.01088888888889,-3.14444444444444,2.41866666666667,57.646,1.0429,-0.2209,0.4193,45.145,18.66,9.4242,8.005,-1.04365,-0.255825,-0.0277,-17.5974,-17.1098,-5.6462,487.742,1,1,1,1
24-May-2018 12:19:03,33.7,0.954714285714286,0.0918571428571429,-0.208714285714286,24.8216666666667,-1.72,-15.513,425.277,-0.857125,0.055925,-0.585125,-3.01088888888889,-3.14444444444444,2.41866666666667,57.646,1.0429,-0.2209,0.4193,45.145,18.66,9.4242,8.005,-1.04365,-0.255825,-0.0277,-17.5974,-17.1098,-5.6462,487.742,1,1,1,1
24-May-2018 12:19:04,77,0.928916666666667,0.0148,-0.193633333333333,26.86875,1.182625,-6.019,425.277,-0.8629,0.0674,-0.57996,-1.05544444444444,-2.07577777777778,2.18177777777778,57.646,0.957028571428571,-0.392171428571429,0.0864857142857143,15.9183333333333,-17.5166666666667,4.14683333333333,8.58166666666667,-0.92455,-0.1481,-0.0368166666666667,-41.4758,1.1586,-20.4878,456.247666666667,0,0,1,1
24-May-2018 12:19:04,77,0.928916666666667,0.0148,-0.193633333333333,26.86875,1.182625,-6.019,425.277,-0.8629,0.0674,-0.57996,-1.05544444444444,-2.07577777777778,2.18177777777778,57.646,0.957028571428571,-0.392171428571429,0.0864857142857143,15.9183333333333,-17.5166666666667,4.14683333333333,8.58166666666667,-0.92455,-0.1481,-0.0368166666666667,-41.4758,1.1586,-20.4878,456.247666666667,0,0,1,1
24-May-2018 12:19:04,77,0.928916666666667,0.0148,-0.193633333333333,26.86875,1.182625,-6.019,425.277,-0.8629,0.0674,-0.57996,-1.05544444444444,-2.07577777777778,2.18177777777778,57.646,0.957028571428571,-0.392171428571429,0.0864857142857143,15.9183333333333,-17.5166666666667,4.14683333333333,8.58166666666667,-0.92455,-0.1481,-0.0368166666666667,-41.4758,1.1586,-20.4878,456.247666666667,0,0,1,1
24-May-2018 12:19:04,77,0.928916666666667,0.0148,-0.193633333333333,26.86875,1.182625,-6.019,425.277,-0.8629,0.0674,-0.57996,-1.05544444444444,-2.07577777777778,2.18177777777778,57.646,0.957028571428571,-0.392171428571429,0.0864857142857143,15.9183333333333,-17.5166666666667,4.14683333333333,8.58166666666667,-0.92455,-0.1481,-0.0368166666666667,-41.4758,1.1586,-20.4878,456.247666666667,0,0,1,1
24-May-2018 12:19:05,89.3,0.903311111111111,0.0694,-0.276688888888889,93.8275,9.75325,-21.475,425.277,-0.86495,0.075,-0.57295,-1.49125,-1.422625,0.693875,57.646,0.8599,-0.246966666666667,0.272166666666667,59.0483333333333,-55.2166666666667,29.4686666666667,6.168,-0.915266666666667,-0.211383333333333,-0.148333333333333,-101.506,-29.2597142857143,20.5488571428571,391.723,1,1,1,1
24-May-2018 12:19:05,89.3,0.903311111111111,0.0694,-0.276688888888889,93.8275,9.75325,-21.475,425.277,-0.86495,0.075,-0.57295,-1.49125,-1.422625,0.693875,57.646,0.8599,-0.246966666666667,0.272166666666667,59.0483333333333,-55.2166666666667,29.4686666666667,6.168,-0.915266666666667,-0.211383333333333,-0.148333333333333,-101.506,-29.2597142857143,20.5488571428571,391.723,1,1,1,1
24-May-2018 12:19:05,89.3,0.903311111111111,0.0694,-0.276688888888889,93.8275,9.75325,-21.475,425.277,-0.86495,0.075,-0.57295,-1.49125,-1.422625,0.693875,57.646,0.8599,-0.246966666666667,0.272166666666667,59.0483333333333,-55.2166666666667,29.4686666666667,6.168,-0.915266666666667,-0.211383333333333,-0.148333333333333,-101.506,-29.2597142857143,20.5488571428571,391.723,1,1,1,1
24-May-2018 12:19:05,89.3,0.903311111111111,0.0694,-0.276688888888889,93.8275,9.75325,-21.475,425.277,-0.86495,0.075,-0.57295,-1.49125,-1.422625,0.693875,57.646,0.8599,-0.246966666666667,0.272166666666667,59.0483333333333,-55.2166666666667,29.4686666666667,6.168,-0.915266666666667,-0.211383333333333,-0.148333333333333,-101.506,-29.2597142857143,20.5488571428571,391.723,1,1,1,1
24-May-2018 12:19:06,91.1,1.03973333333333,-0.0363,-0.254366666666667,35.12,-3.19066666666667,-17.2,425.277,-0.8675,0.0768,-0.569,0.08,-0.6975,0.549,55.964,0.8966,-0.3389,0.1322,25.242,-19.75,-1.7365,2.684,-0.90205,-0.27415,-0.04895,-100.24,12.988,-2.683,391.723,0,1,1,1
24-May-2018 12:19:06,91.1,1.03973333333333,-0.0363,-0.254366666666667,35.12,-3.19066666666667,-17.2,425.277,-0.8675,0.0768,-0.569,0.08,-0.6975,0.549,55.964,0.8966,-0.3389,0.1322,25.242,-19.75,-1.7365,2.684,-0.90205,-0.27415,-0.04895,-100.24,12.988,-2.683,391.723,0,1,1,1
24-May-2018 12:19:06,91.1,1.03973333333333,-0.0363,-0.254366666666667,35.12,-3.19066666666667,-17.2,425.277,-0.8675,0.0768,-0.569,0.08,-0.6975,0.549,55.964,0.8966,-0.3389,0.1322,25.242,-19.75,-1.7365,2.684,-0.90205,-0.27415,-0.04895,-100.24,12.988,-2.683,391.723,0,1,1,1
24-May-2018 12:19:06,91.1,1.03973333333333,-0.0363,-0.254366666666667,35.12,-3.19066666666667,-17.2,0,-0.8675,0.0768,-0.569,0.08,-0.6975,0.549,55.964,0.8966,-0.3389,0.1322,25.242,-19.75,-1.7365,2.684,-0.90205,-0.27415,-0.04895,-100.24,12.988,-2.683,0,0,1,1,1
24-May-2018 12:19:07,126.4,0.88855,0.1189,-0.2011,27.74,-3.015,-25.25,299.275666666667,-0.86905,0.07445,-0.5679,1.92075,-1.307,0.793,55.964,0.971233333333333,-0.369166666666667,0.00913333333333333,79.265,24.905,-24.55,2.512,-1.02703333333333,-0.223666666666667,-0.123266666666667,10.9145,16.677,-11.86,412.376,1,1,1,1
24-May-2018 12:19:07,126.4,0.88855,0.1189,-0.2011,27.74,-3.015,-25.25,299.275666666667,-0.86905,0.07445,-0.5679,1.92075,-1.307,0.793,55.964,0.971233333333333,-0.369166666666667,0.00913333333333333,79.265,24.905,-24.55,2.512,-1.02703333333333,-0.223666666666667,-0.123266666666667,10.9145,16.677,-11.86,412.376,1,1,1,1
24-May-2018 12:19:07,126.4,0.88855,0.1189,-0.2011,27.74,-3.015,-25.25,299.275666666667,-0.86905,0.07445,-0.5679,1.92075,-1.307,0.793,55.964,0.971233333333333,-0.369166666666667,0.00913333333333333,79.265,24.905,-24.55,2.512,-1.02703333333333,-0.223666666666667,-0.123266666666667,10.9145,16.677,-11.86,412.376,1,1,1,1
24-May-2018 12:19:07,126.4,0.88855,0.1189,-0.2011,27.74,-3.015,-25.25,299.275666666667,-0.86905,0.07445,-0.5679,1.92075,-1.307,0.793,55.964,0.971233333333333,-0.369166666666667,0.00913333333333333,79.265,24.905,-24.55,2.512,-1.02703333333333,-0.223666666666667,-0.123266666666667,10.9145,16.677,-11.86,412.376,1,1,1,1
24-May-2018 12:19:08,-73.4,0.8907,0.11112,-0.17818,-7.87857142857143,-2.41185714285714,2.95571428571429,282.049,-0.869766666666667,0.0725666666666667,-0.56565,1.448625,0.428875,-0.239875,55.964,0.8882,-0.267985714285714,0.2782,5.88166666666667,-9.25,11.968,3.58475,-0.9515875,-0.2408125,-0.121025,-53.8605,-1.02633333333333,27.3071666666667,404.795666666667,1,0,1,1
24-May-2018 12:19:08,-73.4,0.8907,0.11112,-0.17818,-7.87857142857143,-2.41185714285714,2.95571428571429,282.049,-0.869766666666667,0.0725666666666667,-0.56565,1.448625,0.428875,-0.239875,55.964,0.8882,-0.267985714285714,0.2782,5.88166666666667,-9.25,11.968,3.58475,-0.9515875,-0.2408125,-0.121025,-53.8605,-1.02633333333333,27.3071666666667,404.795666666667,1,0,1,1
24-May-2018 12:19:08,-73.4,0.8907,0.11112,-0.17818,-7.87857142857143,-2.41185714285714,2.95571428571429,282.049,-0.869766666666667,0.0725666666666667,-0.56565,1.448625,0.428875,-0.239875,55.964,0.8882,-0.267985714285714,0.2782,5.88166666666667,-9.25,11.968,3.58475,-0.9515875,-0.2408125,-0.121025,-53.8605,-1.02633333333333,27.3071666666667,404.795666666667,1,0,1,1
24-May-2018 12:19:08,-73.4,0.8907,0.11112,-0.17818,-7.87857142857143,-2.41185714285714,2.95571428571429,282.049,-0.869766666666667,0.0725666666666667,-0.56565,1.448625,0.428875,-0.239875,55.964,0.8882,-0.267985714285714,0.2782,5.88166666666667,-9.25,11.968,3.58475,-0.9515875,-0.2408125,-0.121025,-53.8605,-1.02633333333333,27.3071666666667,404.795666666667,1,0,1,1
24-May-2018 12:19:09,102,0.896566666666667,0.0606833333333333,-0.296583333333333,-21.7725,1.838125,2.05,285.155666666667,-0.86866,0.06286,-0.56846,1.979,0.848888888888889,-0.959,55.7843333333333,0.9327,-0.366842857142857,0.219585714285714,-20.6516666666667,-10.8865,9.8665,3.95025,-0.8789,-0.25086,-0.10948,27.7004285714286,10.6531428571429,-2.63085714285714,358.332,1,1,1,1
24-May-2018 12:19:09,102,0.896566666666667,0.0606833333333333,-0.296583333333333,-21.7725,1.838125,2.05,285.155666666667,-0.86866,0.06286,-0.56846,1.979,0.848888888888889,-0.959,55.7843333333333,0.9327,-0.366842857142857,0.219585714285714,-20.6516666666667,-10.8865,9.8665,3.95025,-0.8789,-0.25086,-0.10948,27.7004285714286,10.6531428571429,-2.63085714285714,358.332,1,1,1,1
24-May-2018 12:19:09,102,0.896566666666667,0.0606833333333333,-0.296583333333333,-21.7725,1.838125,2.05,285.155666666667,-0.86866,0.06286,-0.56846,1.979,0.848888888888889,-0.959,55.7843333333333,0.9327,-0.366842857142857,0.219585714285714,-20.6516666666667,-10.8865,9.8665,3.95025,-0.8789,-0.25086,-0.10948,27.7004285714286,10.6531428571429,-2.63085714285714,358.332,1,1,1,1
24-May-2018 12:19:09,102,0.896566666666667,0.0606833333333333,-0.296583333333333,-21.7725,1.838125,2.05,285.155666666667,-0.86866,0.06286,-0.56846,1.979,0.848888888888889,-0.959,55.7843333333333,0.9327,-0.366842857142857,0.219585714285714,-20.6516666666667,-10.8865,9.8665,3.95025,-0.8789,-0.25086,-0.10948,27.7004285714286,10.6531428571429,-2.63085714285714,358.332,1,1,1,1
24-May-2018 12:19:10,74.2222222222222,0.912085714285714,0.157671428571429,-0.314442857142857,-103.466666666667,-12.405,25.3216666666667,295.976,-0.86948,0.0607,-0.5676,0.39025,-0.166,1.227125,55.425,0.88655,-0.235616666666667,0.1747,-66.5371428571429,19.772,-15.1858571428571,3.011,-0.8109,-0.305633333333333,0.0128,85.0174285714286,11.0627142857143,27.718,338.645333333333,1,1,1,1
24-May-2018 12:19:10,74.2222222222222,0.912085714285714,0.157671428571429,-0.314442857142857,-103.466666666667,-12.405,25.3216666666667,295.976,-0.86948,0.0607,-0.5676,0.39025,-0.166,1.227125,55.425,0.88655,-0.235616666666667,0.1747,-66.5371428571429,19.772,-15.1858571428571,3.011,-0.8109,-0.305633333333333,0.0128,85.0174285714286,11.0627142857143,27.718,338.645333333333,1,1,1,1
24-May-2018 12:19:10,74.2222222222222,0.912085714285714,0.157671428571429,-0.314442857142857,-103.466666666667,-12.405,25.3216666666667,295.976,-0.86948,0.0607,-0.5676,0.39025,-0.166,1.227125,55.425,0.88655,-0.235616666666667,0.1747,-66.5371428571429,19.772,-15.1858571428571,3.011,-0.8109,-0.305633333333333,0.0128,85.0174285714286,11.0627142857143,27.718,338.645333333333,1,1,1,1
24-May-2018 12:19:10,74.2222222222222,0.912085714285714,0.157671428571429,-0.314442857142857,-103.466666666667,-12.405,25.3216666666667,295.976,-0.86948,0.0607,-0.5676,0.39025,-0.166,1.227125,55.425,0.88655,-0.235616666666667,0.1747,-66.5371428571429,19.772,-15.1858571428571,3.011,-0.8109,-0.305633333333333,0.0128,85.0174285714286,11.0627142857143,27.718,338.645333333333,1,1,1,1
24-May-2018 12:19:11,-33.5,0.920628571428571,0.106728571428571,-0.292371428571429,-22.4678333333333,-0.753000000000001,7.96566666666667,315.103333333333,-0.869825,0.065625,-0.568325,-0.85075,0.75625,-0.438625,55.2126,0.866728571428571,-0.275257142857143,0.243542857142857,-22.8483333333333,-27.035,11.7366666666667,6.34425,-0.903966666666667,-0.232583333333333,-0.190766666666667,74.01675,13.963375,1.661625,334.52,1,1,1,1
24-May-2018 12:19:11,-33.5,0.920628571428571,0.106728571428571,-0.292371428571429,-22.4678333333333,-0.753000000000001,7.96566666666667,315.103333333333,-0.869825,0.065625,-0.568325,-0.85075,0.75625,-0.438625,55.2126,0.866728571428571,-0.275257142857143,0.243542857142857,-22.8483333333333,-27.035,11.7366666666667,6.34425,-0.903966666666667,-0.232583333333333,-0.190766666666667,74.01675,13.963375,1.661625,334.52,1,1,1,1
24-May-2018 12:19:11,-33.5,0.920628571428571,0.106728571428571,-0.292371428571429,-22.4678333333333,-0.753000000000001,7.96566666666667,315.103333333333,-0.869825,0.065625,-0.568325,-0.85075,0.75625,-0.438625,55.2126,0.866728571428571,-0.275257142857143,0.243542857142857,-22.8483333333333,-27.035,11.7366666666667,6.34425,-0.903966666666667,-0.232583333333333,-0.190766666666667,74.01675,13.963375,1.661625,334.52,1,1,1,1
24-May-2018 12:19:11,-33.5,0.920628571428571,0.106728571428571,-0.292371428571429,-22.4678333333333,-0.753000000000001,7.96566666666667,315.103333333333,-0.869825,0.065625,-0.568325,-0.85075,0.75625,-0.438625,55.2126,0.866728571428571,-0.275257142857143,0.243542857142857,-22.8483333333333,-27.035,11.7366666666667,6.34425,-0.903966666666667,-0.232583333333333,-0.190766666666667,74.01675,13.963375,1.661625,334.52,1,1,1,1
24-May-2018 12:19:12,78.8,0.896914285714286,0.0911857142857143,-0.209457142857143,-6.91714285714286,1.52057142857143,6.63042857142857,412.855,-0.86885,0.0657166666666667,-0.568416666666667,0.29,1.09175,0.1005,55.071,0.945016666666667,-0.20825,0.3859,45.9748,46.658,-6.634,6.269,-0.888983333333333,-0.295316666666667,-0.144916666666667,-15.3395714285714,1.20214285714286,-6.55914285714286,313.6035,1,1,1,1
24-May-2018 12:19:12,78.8,0.896914285714286,0.0911857142857143,-0.209457142857143,-6.91714285714286,1.52057142857143,6.63042857142857,412.855,-0.86885,0.0657166666666667,-0.568416666666667,0.29,1.09175,0.1005,55.071,0.945016666666667,-0.20825,0.3859,45.9748,46.658,-6.634,6.269,-0.888983333333333,-0.295316666666667,-0.144916666666667,-15.3395714285714,1.20214285714286,-6.55914285714286,313.6035,1,1,1,1
24-May-2018 12:19:12,78.8,0.896914285714286,0.0911857142857143,-0.209457142857143,-6.91714285714286,1.52057142857143,6.63042857142857,412.855,-0.86885,0.0657166666666667,-0.568416666666667,0.29,1.09175,0.1005,55.071,0.945016666666667,-0.20825,0.3859,45.9748,46.658,-6.634,6.269,-0.888983333333333,-0.295316666666667,-0.144916666666667,-15.3395714285714,1.20214285714286,-6.55914285714286,313.6035,1,1,1,1
24-May-2018 12:19:12,78.8,0.896914285714286,0.0911857142857143,-0.209457142857143,-6.91714285714286,1.52057142857143,6.63042857142857,412.855,-0.86885,0.0657166666666667,-0.568416666666667,0.29,1.09175,0.1005,55.071,0.945016666666667,-0.20825,0.3859,45.9748,46.658,-6.634,6.269,-0.888983333333333,-0.295316666666667,-0.144916666666667,-15.3395714285714,1.20214285714286,-6.55914285714286,313.6035,1,1,1,1
24-May-2018 12:19:13,91.9090909090909,0.926766666666667,0.106188888888889,-0.2128,-3.19,-1.90725,-0.282875,412.855,-0.870475,0.06675,-0.565525,-0.026,-0.275222222222222,0.907888888888889,55.071,0.90462,-0.38694,0.10204,-47.375,-21.23,7.79,6.879,-0.945342857142857,-0.274028571428571,-0.0618857142857143,-27.4878,9.3172,38.9266,436.006,1,1,1,1
24-May-2018 12:19:13,91.9090909090909,0.926766666666667,0.106188888888889,-0.2128,-3.19,-1.90725,-0.282875,412.855,-0.870475,0.06675,-0.565525,-0.026,-0.275222222222222,0.907888888888889,55.071,0.90462,-0.38694,0.10204,-47.375,-21.23,7.79,6.879,-0.945342857142857,-0.274028571428571,-0.0618857142857143,-27.4878,9.3172,38.9266,436.006,1,1,1,1
24-May-2018 12:19:13,91.9090909090909,0.926766666666667,0.106188888888889,-0.2128,-3.19,-1.90725,-0.282875,412.855,-0.870475,0.06675,-0.565525,-0.026,-0.275222222222222,0.907888888888889,55.071,0.90462,-0.38694,0.10204,-47.375,-21.23,7.79,6.879,-0.945342857142857,-0.274028571428571,-0.0618857142857143,-27.4878,9.3172,38.9266,436.006,1,1,1,1
24-May-2018 12:19:13,91.9090909090909,0.926766666666667,0.106188888888889,-0.2128,-3.19,-1.90725,-0.282875,412.855,-0.870475,0.06675,-0.565525,-0.026,-0.275222222222222,0.907888888888889,55.071,0.90462,-0.38694,0.10204,-47.375,-21.23,7.79,6.879,-0.945342857142857,-0.274028571428571,-0.0618857142857143,-27.4878,9.3172,38.9266,436.006,1,1,1,1
24-May-2018 12:19:14,-30.6,0.90365,0.06175,-0.2753,-2.07985714285714,0.837285714285714,2.075,412.855,-0.870775,0.066275,-0.564375,0.759,0.172111111111111,0.170444444444444,56.703,0.963066666666667,-0.3086,0.3217,26.8483333333333,46.8238333333333,-8.29283333333333,8.106,-0.83006,-0.2873,-0.06836,54.2685,-5.1625,-25.9045,518.415,1,1,1,0
24-May-2018 12:19:14,-30.6,0.90365,0.06175,-0.2753,-2.07985714285714,0.837285714285714,2.075,412.855,-0.870775,0.066275,-0.564375,0.759,0.172111111111111,0.170444444444444,56.703,0.963066666666667,-0.3086,0.3217,26.8483333333333,46.8238333333333,-8.29283333333333,8.106,-0.83006,-0.2873,-0.06836,54.2685,-5.1625,-25.9045,518.415,1,1,1,0
24-May-2018 12:19:14,-30.6,0.90365,0.06175,-0.2753,-2.07985714285714,0.837285714285714,2.075,412.855,-0.870775,0.066275,-0.564375,0.759,0.172111111111111,0.170444444444444,56.703,0.963066666666667,-0.3086,0.3217,26.8483333333333,46.8238333333333,-8.29283333333333,8.106,-0.83006,-0.2873,-0.06836,54.2685,-5.1625,-25.9045,518.415,1,1,1,0
24-May-2018 12:19:14,-30.6,0.90365,0.06175,-0.2753,-2.07985714285714,0.837285714285714,2.075,412.855,-0.870775,0.066275,-0.564375,0.759,0.172111111111111,0.170444444444444,56.703,0.963066666666667,-0.3086,0.3217,26.8483333333333,46.8238333333333,-8.29283333333333,8.106,-0.83006,-0.2873,-0.06836,54.2685,-5.1625,-25.9045,518.415,1,1,1,0
24-May-2018 12:19:15,57.9,0.899425,0.1355125,-0.3189375,-90.84,-7.70333333333333,28.4235555555556,412.855,-0.872375,0.066675,-0.564375,-0.639555555555555,0.535777777777778,0.299111111111111,56.703,0.91382,-0.33206,0.08416,-93,50.836,-20.156,5.50066666666667,-0.92808,-0.26152,-0.2696,101.9146,30.1098,-0.426600000000001,593.360333333333,1,1,1,1
24-May-2018 12:19:15,57.9,0.899425,0.1355125,-0.3189375,-90.84,-7.70333333333333,28.4235555555556,412.855,-0.872375,0.066675,-0.564375,-0.639555555555555,0.535777777777778,0.299111111111111,56.703,0.91382,-0.33206,0.08416,-93,50.836,-20.156,5.50066666666667,-0.92808,-0.26152,-0.2696,101.9146,30.1098,-0.426600000000001,593.360333333333,1,1,1,1
24-May-2018 12:19:15,57.9,0.899425,0.1355125,-0.3189375,-90.84,-7.70333333333333,28.4235555555556,412.855,-0.872375,0.066675,-0.564375,-0.639555555555555,0.535777777777778,0.299111111111111,56.703,0.91382,-0.33206,0.08416,-93,50.836,-20.156,5.50066666666667,-0.92808,-0.26152,-0.2696,101.9146,30.1098,-0.426600000000001,593.360333333333,1,1,1,1
24-May-2018 12:19:15,57.9,0.899425,0.1355125,-0.3189375,-90.84,-7.70333333333333,28.4235555555556,412.855,-0.872375,0.066675,-0.564375,-0.639555555555555,0.535777777777778,0.299111111111111,56.703,0.91382,-0.33206,0.08416,-93,50.836,-20.156,5.50066666666667,-0.92808,-0.26152,-0.2696,101.9146,30.1098,-0.426600000000001,593.360333333333,1,1,1,1
24-May-2018 12:19:16,4.57142857142857,0.916257142857143,0.134257142857143,-0.199842857142857,-52.602625,-10.06425,12.269875,270.304,-0.86884,0.06922,-0.56214,0.328125,0.549375,0.32025,56.8185,0.749325,-0.1757,0.665425,-29.966,11.35,-26.15,2.417,-0.934925,-0.28955,-0.134625,45.575,14.4774285714286,0.993142857142857,593.360333333333,1,1,1,1
24-May-2018 12:19:16,4.57142857142857,0.916257142857143,0.134257142857143,-0.199842857142857,-52.602625,-10.06425,12.269875,270.304,-0.86884,0.06922,-0.56214,0.328125,0.549375,0.32025,56.8185,0.749325,-0.1757,0.665425,-29.966,11.35,-26.15,2.417,-0.934925,-0.28955,-0.134625,45.575,14.4774285714286,0.993142857142857,593.360333333333,1,1,1,1
24-May-2018 12:19:16,4.57142857142857,0.916257142857143,0.134257142857143,-0.199842857142857,-52.602625,-10.06425,12.269875,270.304,-0.86884,0.06922,-0.56214,0.328125,0.549375,0.32025,56.8185,0.749325,-0.1757,0.665425,-29.966,11.35,-26.15,2.417,-0.934925,-0.28955,-0.134625,45.575,14.4774285714286,0.993142857142857,593.360333333333,1,1,1,1
24-May-2018 12:19:16,4.57142857142857,0.916257142857143,0.134257142857143,-0.199842857142857,-52.602625,-10.06425,12.269875,270.304,-0.86884,0.06922,-0.56214,0.328125,0.549375,0.32025,56.8185,0.749325,-0.1757,0.665425,-29.966,11.35,-26.15,2.417,-0.934925,-0.28955,-0.134625,45.575,14.4774285714286,0.993142857142857,0,1,1,1,1
24-May-2018 12:19:17,151,0.94625,0.100525,-0.2664,-30.075,-3.336,11.90375,287.07325,-0.87115,0.066975,-0.5637,0.949333333333333,0.347333333333333,0.069,56.857,0.8619,-0.2297,0.2784,-44.36,-27.344,0.0626000000000005,3.099,-0.878757142857143,-0.325142857142857,-0.0532571428571429,18.1447142857143,14.8168571428571,1.36742857142857,396.345,1,1,1,1
24-May-2018 12:19:17,151,0.94625,0.100525,-0.2664,-30.075,-3.336,11.90375,287.07325,-0.87115,0.066975,-0.5637,0.949333333333333,0.347333333333333,0.069,56.857,0.8619,-0.2297,0.2784,-44.36,-27.344,0.0626000000000005,3.099,-0.878757142857143,-0.325142857142857,-0.0532571428571429,18.1447142857143,14.8168571428571,1.36742857142857,396.345,1,1,1,1
24-May-2018 12:19:17,151,0.94625,0.100525,-0.2664,-30.075,-3.336,11.90375,287.07325,-0.87115,0.066975,-0.5637,0.949333333333333,0.347333333333333,0.069,56.857,0.8619,-0.2297,0.2784,-44.36,-27.344,0.0626000000000005,3.099,-0.878757142857143,-0.325142857142857,-0.0532571428571429,18.1447142857143,14.8168571428571,1.36742857142857,396.345,1,1,1,1
24-May-2018 12:19:17,151,0.94625,0.100525,-0.2664,-30.075,-3.336,11.90375,287.07325,-0.87115,0.066975,-0.5637,0.949333333333333,0.347333333333333,0.069,56.857,0.8619,-0.2297,0.2784,-44.36,-27.344,0.0626000000000005,3.099,-0.878757142857143,-0.325142857142857,-0.0532571428571429,18.1447142857143,14.8168571428571,1.36742857142857,396.345,1,1,1,1
24-May-2018 12:19:18,45.1,0.90316,0.07142,-0.2283,4.074,5.1832,-0.0734000000000002,297.6975,-0.87045,0.0652,-0.563725,0.908,0.346,0.305,56.857,0.938366666666667,-0.413,0.0768333333333333,4.356,41.4376,-8.973,2.779,-0.86838,-0.19328,-0.11296,2.622,-4.561,4.7926,369.666,1,1,1,1
24-May-2018 12:19:18,45.1,0.90316,0.07142,-0.2283,4.074,5.1832,-0.0734000000000002,297.6975,-0.87045,0.0652,-0.563725,0.908,0.346,0.305,56.857,0.938366666666667,-0.413,0.0768333333333333,4.356,41.4376,-8.973,2.779,-0.86838,-0.19328,-0.11296,2.622,-4.561,4.7926,369.666,1,1,1,1
24-May-2018 12:19:18,45.1,0.90316,0.07142,-0.2283,4.074,5.1832,-0.0734000000000002,297.6975,-0.87045,0.0652,-0.563725,0.908,0.346,0.305,56.857,0.938366666666667,-0.413,0.0768333333333333,4.356,41.4376,-8.973,2.779,-0.86838,-0.19328,-0.11296,2.622,-4.561,4.7926,369.666,1,1,1,1
24-May-2018 12:19:18,45.1,0.90316,0.07142,-0.2283,4.074,5.1832,-0.0734000000000002,297.6975,-0.87045,0.0652,-0.563725,0.908,0.346,0.305,56.857,0.938366666666667,-0.413,0.0768333333333333,4.356,41.4376,-8.973,2.779,-0.86838,-0.19328,-0.11296,2.622,-4.561,4.7926,369.666,1,1,1,1
24-May-2018 12:19:19,52.7,0.88916,0.12976,-0.27846,-9.9744,-3.6106,0.9964,275.6015,-0.87148,0.06422,-0.56572,0.6058,0.5861,0.1724,57.1416666666667,0.8023,-0.2266,0.300814285714286,5.1375,-34.575,6.18775,3.386,-0.955114285714286,-0.134028571428571,-0.128728571428571,-27.439,-0.6605,3.32316666666667,332.8245,1,1,1,1
24-May-2018 12:19:19,52.7,0.88916,0.12976,-0.27846,-9.9744,-3.6106,0.9964,275.6015,-0.87148,0.06422,-0.56572,0.6058,0.5861,0.1724,57.1416666666667,0.8023,-0.2266,0.300814285714286,5.1375,-34.575,6.18775,3.386,-0.955114285714286,-0.134028571428571,-0.128728571428571,-27.439,-0.6605,3.32316666666667,332.8245,1,1,1,1
24-May-2018 12:19:19,52.7,0.88916,0.12976,-0.27846,-9.9744,-3.6106,0.9964,275.6015,-0.87148,0.06422,-0.56572,0.6058,0.5861,0.1724,57.1416666666667,0.8023,-0.2266,0.300814285714286,5.1375,-34.575,6.18775,3.386,-0.955114285714286,-0.134028571428571,-0.128728571428571,-27.439,-0.6605,3.32316666666667,332.8245,1,1,1,1
24-May-2018 12:19:19,52.7,0.88916,0.12976,-0.27846,-9.9744,-3.6106,0.9964,275.6015,-0.87148,0.06422,-0.56572,0.6058,0.5861,0.1724,57.1416666666667,0.8023,-0.2266,0.300814285714286,5.1375,-34.575,6.18775,3.386,-0.955114285714286,-0.134028571428571,-0.128728571428571,-27.439,-0.6605,3.32316666666667,332.8245,1,1,1,1
24-May-2018 12:19:20,110.3,0.8999,0.0249428571428571,-0.3452,135.25,14.9166666666667,-41.1,255.5845,-0.86928,0.065,-0.566,0.258444444444444,-0.0111111111111111,0.501666666666667,57.284,0.85285,-0.409083333333333,0.195133333333333,71.1542857142857,-26.4485714285714,18.6492857142857,4.48825,-0.938328571428572,-0.2375,-0.0966857142857143,-127.313833333333,-32.7743333333333,2.47966666666667,558.453,0,1,1,1
24-May-2018 12:19:20,110.3,0.8999,0.0249428571428571,-0.3452,135.25,14.9166666666667,-41.1,255.5845,-0.86928,0.065,-0.566,0.258444444444444,-0.0111111111111111,0.501666666666667,57.284,0.85285,-0.409083333333333,0.195133333333333,71.1542857142857,-26.4485714285714,18.6492857142857,4.48825,-0.938328571428572,-0.2375,-0.0966857142857143,-127.313833333333,-32.7743333333333,2.47966666666667,558.453,0,1,1,1
24-May-2018 12:19:20,110.3,0.8999,0.0249428571428571,-0.3452,135.25,14.9166666666667,-41.1,255.5845,-0.86928,0.065,-0.566,0.258444444444444,-0.0111111111111111,0.501666666666667,57.284,0.85285,-0.409083333333333,0.195133333333333,71.1542857142857,-26.4485714285714,18.6492857142857,4.48825,-0.938328571428572,-0.2375,-0.0966857142857143,-127.313833333333,-32.7743333333333,2.47966666666667,558.453,0,1,1,1
24-May-2018 12:19:20,110.3,0.8999,0.0249428571428571,-0.3452,135.25,14.9166666666667,-41.1,255.5845,-0.86928,0.065,-0.566,0.258444444444444,-0.0111111111111111,0.501666666666667,57.284,0.85285,-0.409083333333333,0.195133333333333,71.1542857142857,-26.4485714285714,18.6492857142857,4.48825,-0.938328571428572,-0.2375,-0.0966857142857143,-127.313833333333,-32.7743333333333,2.47966666666667,558.453,0,1,1,1
24-May-2018 12:19:21,70.4444444444444,0.9759,0.0479,-0.15538,38.2066666666667,-0.140166666666667,-3.4015,386.148333333333,-0.871925,0.0666,-0.5652,-0.146222222222222,-0.105555555555556,0.474444444444444,57.284,0.891783333333333,-0.4165,0.00521666666666667,21.4425,-21.2,-5.66475,4.5016,-0.895066666666667,-0.241366666666667,0.0998333333333333,-34.1465,-3.96325,5.33525,576.59,0,1,1,1
24-May-2018 12:19:21,70.4444444444444,0.9759,0.0479,-0.15538,38.2066666666667,-0.140166666666667,-3.4015,386.148333333333,-0.871925,0.0666,-0.5652,-0.146222222222222,-0.105555555555556,0.474444444444444,57.284,0.891783333333333,-0.4165,0.00521666666666667,21.4425,-21.2,-5.66475,4.5016,-0.895066666666667,-0.241366666666667,0.0998333333333333,-34.1465,-3.96325,5.33525,576.59,0,1,1,1
24-May-2018 12:19:21,70.4444444444444,0.9759,0.0479,-0.15538,38.2066666666667,-0.140166666666667,-3.4015,386.148333333333,-0.871925,0.0666,-0.5652,-0.146222222222222,-0.105555555555556,0.474444444444444,57.284,0.891783333333333,-0.4165,0.00521666666666667,21.4425,-21.2,-5.66475,4.5016,-0.895066666666667,-0.241366666666667,0.0998333333333333,-34.1465,-3.96325,5.33525,576.59,0,1,1,1
24-May-2018 12:19:21,70.4444444444444,0.9759,0.0479,-0.15538,38.2066666666667,-0.140166666666667,-3.4015,386.148333333333,-0.871925,0.0666,-0.5652,-0.146222222222222,-0.105555555555556,0.474444444444444,57.284,0.891783333333333,-0.4165,0.00521666666666667,21.4425,-21.2,-5.66475,4.5016,-0.895066666666667,-0.241366666666667,0.0998333333333333,-34.1465,-3.96325,5.33525,576.59,0,1,1,1
24-May-2018 12:19:22,120.111111111111,0.9460625,0.11265,-0.2974375,16.096,-4.90325,-9.9375,417.525,-0.87242,0.06748,-0.56084,0.494777777777778,-0.431666666666667,0.542222222222222,56.19275,0.930033333333333,-0.2279,0.282516666666667,25.4388571428571,11.7571428571429,-3.82857142857143,6.02766666666667,-0.91644,-0.2301,-0.083,-16.514,1.26033333333333,-5.78266666666667,539.201,1,1,0,1
24-May-2018 12:19:22,120.111111111111,0.9460625,0.11265,-0.2974375,16.096,-4.90325,-9.9375,417.525,-0.87242,0.06748,-0.56084,0.494777777777778,-0.431666666666667,0.542222222222222,56.19275,0.930033333333333,-0.2279,0.282516666666667,25.4388571428571,11.7571428571429,-3.82857142857143,6.02766666666667,-0.91644,-0.2301,-0.083,-16.514,1.26033333333333,-5.78266666666667,539.201,1,1,0,1
24-May-2018 12:19:22,120.111111111111,0.9460625,0.11265,-0.2974375,16.096,-4.90325,-9.9375,417.525,-0.87242,0.06748,-0.56084,0.494777777777778,-0.431666666666667,0.542222222222222,56.19275,0.930033333333333,-0.2279,0.282516666666667,25.4388571428571,11.7571428571429,-3.82857142857143,6.02766666666667,-0.91644,-0.2301,-0.083,-16.514,1.26033333333333,-5.78266666666667,539.201,1,1,0,1
24-May-2018 12:19:22,120.111111111111,0.9460625,0.11265,-0.2974375,16.096,-4.90325,-9.9375,417.525,-0.87242,0.06748,-0.56084,0.494777777777778,-0.431666666666667,0.542222222222222,56.19275,0.930033333333333,-0.2279,0.282516666666667,25.4388571428571,11.7571428571429,-3.82857142857143,6.02766666666667,-0.91644,-0.2301,-0.083,-16.514,1.26033333333333,-5.78266666666667,539.201,1,1,0,1
24-May-2018 12:19:23,-8.2,0.879983333333333,0.0654333333333333,-0.208133333333333,-4.81922222222222,-0.652888888888889,3.05633333333333,417.525,-0.87375,0.068675,-0.55885,0.516888888888889,0.550333333333333,0.563444444444444,55.829,0.8884,-0.381316666666667,0.1064,5.826,20.482,-3.5408,6.9624,-0.974485714285714,-0.226657142857143,-0.0509714285714286,-24.0853333333333,-5.18333333333333,-21.687,474.0524,0,1,1,1
24-May-2018 12:19:23,-8.2,0.879983333333333,0.0654333333333333,-0.208133333333333,-4.81922222222222,-0.652888888888889,3.05633333333333,417.525,-0.87375,0.068675,-0.55885,0.516888888888889,0.550333333333333,0.563444444444444,55.829,0.8884,-0.381316666666667,0.1064,5.826,20.482,-3.5408,6.9624,-0.974485714285714,-0.226657142857143,-0.0509714285714286,-24.0853333333333,-5.18333333333333,-21.687,474.0524,0,1,1,1
24-May-2018 12:19:23,-8.2,0.879983333333333,0.0654333333333333,-0.208133333333333,-4.81922222222222,-0.652888888888889,3.05633333333333,417.525,-0.87375,0.068675,-0.55885,0.516888888888889,0.550333333333333,0.563444444444444,55.829,0.8884,-0.381316666666667,0.1064,5.826,20.482,-3.5408,6.9624,-0.974485714285714,-0.226657142857143,-0.0509714285714286,-24.0853333333333,-5.18333333333333,-21.687,474.0524,0,1,1,1
24-May-2018 12:19:23,-8.2,0.879983333333333,0.0654333333333333,-0.208133333333333,-4.81922222222222,-0.652888888888889,3.05633333333333,417.525,-0.87375,0.068675,-0.55885,0.516888888888889,0.550333333333333,0.563444444444444,55.829,0.8884,-0.381316666666667,0.1064,5.826,20.482,-3.5408,6.9624,-0.974485714285714,-0.226657142857143,-0.0509714285714286,-24.0853333333333,-5.18333333333333,-21.687,474.0524,0,1,1,1
24-May-2018 12:19:24,41.1111111111111,0.906455555555556,0.100622222222222,-0.249333333333333,-1.89125,10.037875,-0.786125,417.525,-0.8733,0.06878,-0.55928,0.123111111111111,0.217777777777778,0.278666666666667,55.829,0.911516666666667,-0.280566666666667,0.238,-27.6616666666667,-21.5833333333333,5.497,7.58125,-0.9921,-0.22935,-0.10055,45.823,-7.07316666666667,-13.5265,488.3925,1,1,1,1
24-May-2018 12:19:24,41.1111111111111,0.906455555555556,0.100622222222222,-0.249333333333333,-1.89125,10.037875,-0.786125,417.525,-0.8733,0.06878,-0.55928,0.123111111111111,0.217777777777778,0.278666666666667,55.829,0.911516666666667,-0.280566666666667,0.238,-27.6616666666667,-21.5833333333333,5.497,7.58125,-0.9921,-0.22935,-0.10055,45.823,-7.07316666666667,-13.5265,488.3925,1,1,1,1
24-May-2018 12:19:24,41.1111111111111,0.906455555555556,0.100622222222222,-0.249333333333333,-1.89125,10.037875,-0.786125,417.525,-0.8733,0.06878,-0.55928,0.123111111111111,0.217777777777778,0.278666666666667,55.829,0.911516666666667,-0.280566666666667,0.238,-27.6616666666667,-21.5833333333333,5.497,7.58125,-0.9921,-0.22935,-0.10055,45.823,-7.07316666666667,-13.5265,488.3925,1,1,1,1
24-May-2018 12:19:24,41.1111111111111,0.906455555555556,0.100622222222222,-0.249333333333333,-1.89125,10.037875,-0.786125,417.525,-0.8733,0.06878,-0.55928,0.123111111111111,0.217777777777778,0.278666666666667,55.829,0.911516666666667,-0.280566666666667,0.238,-27.6616666666667,-21.5833333333333,5.497,7.58125,-0.9921,-0.22935,-0.10055,45.823,-7.07316666666667,-13.5265,488.3925,1,1,1,1
24-May-2018 12:19:25,131.25,0.859911111111111,0.0928555555555555,-0.380277777777778,-119.8875,-26.495,45.455,417.525,-0.8734,0.069225,-0.56005,0.171444444444444,0.117777777777778,0.460888888888889,55.909,0.931925,-0.3819,-0.02535,-93.225,32.8455,-16.6325,7.015,-0.830525,-0.2942,-0.08395,98.734625,29.291125,2.561,538.732666666667,1,1,1,1
24-May-2018 12:19:25,131.25,0.859911111111111,0.0928555555555555,-0.380277777777778,-119.8875,-26.495,45.455,417.525,-0.8734,0.069225,-0.56005,0.171444444444444,0.117777777777778,0.460888888888889,55.909,0.931925,-0.3819,-0.02535,-93.225,32.8455,-16.6325,7.015,-0.830525,-0.2942,-0.08395,98.734625,29.291125,2.561,538.732666666667,1,1,1,1
24-May-2018 12:19:25,131.25,0.859911111111111,0.0928555555555555,-0.380277777777778,-119.8875,-26.495,45.455,417.525,-0.8734,0.069225,-0.56005,0.171444444444444,0.117777777777778,0.460888888888889,55.909,0.931925,-0.3819,-0.02535,-93.225,32.8455,-16.6325,7.015,-0.830525,-0.2942,-0.08395,98.734625,29.291125,2.561,538.732666666667,1,1,1,1
24-May-2018 12:19:25,131.25,0.859911111111111,0.0928555555555555,-0.380277777777778,-119.8875,-26.495,45.455,417.525,-0.8734,0.069225,-0.56005,0.171444444444444,0.117777777777778,0.460888888888889,55.909,0.931925,-0.3819,-0.02535,-93.225,32.8455,-16.6325,7.015,-0.830525,-0.2942,-0.08395,98.734625,29.291125,2.561,538.732666666667,1,1,1,1
24-May-2018 12:19:26,-21,0.839333333333333,0.22415,-0.40335,-41.5285714285714,-2.73614285714286,14.0914285714286,214.888,-0.8736,0.06932,-0.55932,0.595125,0.214,0.61,55.909,0.92745,-0.127583333333333,0.404966666666667,-70.5666666666667,13.8778333333333,-27.7916666666667,2.8645,-0.95378,-0.20764,-0.2527,68.7398333333333,26.26,14.8981666666667,607.251,0,1,1,1
24-May-2018 12:19:26,-21,0.839333333333333,0.22415,-0.40335,-41.5285714285714,-2.73614285714286,14.0914285714286,214.888,-0.8736,0.06932,-0.55932,0.595125,0.214,0.61,55.909,0.92745,-0.127583333333333,0.404966666666667,-70.5666666666667,13.8778333333333,-27.7916666666667,2.8645,-0.95378,-0.20764,-0.2527,68.7398333333333,26.26,14.8981666666667,607.251,0,1,1,1
24-May-2018 12:19:26,-21,0.839333333333333,0.22415,-0.40335,-41.5285714285714,-2.73614285714286,14.0914285714286,214.888,-0.8736,0.06932,-0.55932,0.595125,0.214,0.61,55.909,0.92745,-0.127583333333333,0.404966666666667,-70.5666666666667,13.8778333333333,-27.7916666666667,2.8645,-0.95378,-0.20764,-0.2527,68.7398333333333,26.26,14.8981666666667,607.251,0,1,1,1
24-May-2018 12:19:26,-21,0.839333333333333,0.22415,-0.40335,-41.5285714285714,-2.73614285714286,14.0914285714286,214.888,-0.8736,0.06932,-0.55932,0.595125,0.214,0.61,55.909,0.92745,-0.127583333333333,0.404966666666667,-70.5666666666667,13.8778333333333,-27.7916666666667,2.8645,-0.95378,-0.20764,-0.2527,68.7398333333333,26.26,14.8981666666667,607.251,0,1,1,1
24-May-2018 12:19:27,83,0.91876,0.07126,-0.2747,-24.95,5.4585,11.887,277.032,-0.8748,0.06978,-0.55718,-0.015,1.0875,0.3669,56.078,0.86095,-0.144125,0.37645,-55.89,-9.6466,17.1314,3.05733333333333,-0.925025,-0.20845,-0.135925,40.1586,-8.7926,5.1462,402.80525,0,1,1,1
24-May-2018 12:19:27,83,0.91876,0.07126,-0.2747,-24.95,5.4585,11.887,277.032,-0.8748,0.06978,-0.55718,-0.015,1.0875,0.3669,56.078,0.86095,-0.144125,0.37645,-55.89,-9.6466,17.1314,3.05733333333333,-0.925025,-0.20845,-0.135925,40.1586,-8.7926,5.1462,402.80525,0,1,1,1
24-May-2018 12:19:27,83,0.91876,0.07126,-0.2747,-24.95,5.4585,11.887,277.032,-0.8748,0.06978,-0.55718,-0.015,1.0875,0.3669,56.078,0.86095,-0.144125,0.37645,-55.89,-9.6466,17.1314,3.05733333333333,-0.925025,-0.20845,-0.135925,40.1586,-8.7926,5.1462,402.80525,0,1,1,1
24-May-2018 12:19:27,83,0.91876,0.07126,-0.2747,-24.95,5.4585,11.887,277.032,-0.8748,0.06978,-0.55718,-0.015,1.0875,0.3669,56.078,0.86095,-0.144125,0.37645,-55.89,-9.6466,17.1314,3.05733333333333,-0.925025,-0.20845,-0.135925,40.1586,-8.7926,5.1462,402.80525,0,1,1,1
24-May-2018 12:19:28,65.9,0.9334,0.067,-0.291,4.405,3.081,8.595,296.127,-0.8735,0.0739,-0.5557,0.0915,-0.121,0.6405,56.416,0.87585,-0.3831,0.0816,-44.3,-9.2,-3.65,2.636,-0.8592,-0.2595,0.0037,3.354,12.195,-15.183,436.934,1,1,1,1
24-May-2018 12:19:28,65.9,0.9334,0.067,-0.291,4.405,3.081,8.595,296.127,-0.8735,0.0739,-0.5557,0.0915,-0.121,0.6405,56.416,0.87585,-0.3831,0.0816,-44.3,-9.2,-3.65,2.636,-0.8592,-0.2595,0.0037,3.354,12.195,-15.183,436.934,1,1,1,1
24-May-2018 12:19:28,65.9,0.9334,0.067,-0.291,4.405,3.081,8.595,296.127,-0.8735,0.0739,-0.5557,0.0915,-0.121,0.6405,56.416,0.87585,-0.3831,0.0816,-44.3,-9.2,-3.65,2.636,-0.8592,-0.2595,0.0037,3.354,12.195,-15.183,436.934,1,1,1,1
24-May-2018 12:19:28,65.9,0.9334,0.067,-0.291,4.405,3.081,8.595,296.127,-0.8735,0.0739,-0.5557,0.0915,-0.121,0.6405,56.416,0.87585,-0.3831,0.0816,-44.3,-9.2,-3.65,2.636,-0.8592,-0.2595,0.0037,3.354,12.195,-15.183,436.934,1,1,1,1
24-May-2018 12:19:29,35.8,0.9271,0.1248,-0.26976,24.182,3.5266,-6.149,309.503,-0.8733,0.0708666666666667,-0.557566666666667,0.3265,0.356333333333333,0.559166666666667,56.416,0.97115,-0.4208,-0.002275,42.5,7.378,13.29,2.5,-0.974,-0.28092,-0.09338,-0.533250000000001,1.00625,-12.5,386.0745,1,1,1,1
24-May-2018 12:19:29,35.8,0.9271,0.1248,-0.26976,24.182,3.5266,-6.149,309.503,-0.8733,0.0708666666666667,-0.557566666666667,0.3265,0.356333333333333,0.559166666666667,56.416,0.97115,-0.4208,-0.002275,42.5,7.378,13.29,2.5,-0.974,-0.28092,-0.09338,-0.533250000000001,1.00625,-12.5,386.0745,1,1,1,1
24-May-2018 12:19:29,35.8,0.9271,0.1248,-0.26976,24.182,3.5266,-6.149,309.503,-0.8733,0.0708666666666667,-0.557566666666667,0.3265,0.356333333333333,0.559166666666667,56.416,0.97115,-0.4208,-0.002275,42.5,7.378,13.29,2.5,-0.974,-0.28092,-0.09338,-0.533250000000001,1.00625,-12.5,386.0745,1,1,1,1
24-May-2018 12:19:29,35.8,0.9271,0.1248,-0.26976,24.182,3.5266,-6.149,309.503,-0.8733,0.0708666666666667,-0.557566666666667,0.3265,0.356333333333333,0.559166666666667,56.416,0.97115,-0.4208,-0.002275,42.5,7.378,13.29,2.5,-0.974,-0.28092,-0.09338,-0.533250000000001,1.00625,-12.5,386.0745,1,1,1,1
24-May-2018 12:19:30,130.75,0.895671428571429,0.104542857142857,-0.208842857142857,-16.3854285714286,-3.06128571428571,5.54814285714286,291.26975,-0.8739,0.07314,-0.55906,0.745666666666667,0.224555555555556,0.562555555555556,56.144,0.879725,-0.2935875,0.3645625,-9.23666666666667,-37.4333333333333,0.0233333333333346,3.4795,-0.88926,-0.1671,-0.01096,-9.5366,-2.866,-16.5732,405.15375,1,0,1,1
24-May-2018 12:19:30,130.75,0.895671428571429,0.104542857142857,-0.208842857142857,-16.3854285714286,-3.06128571428571,5.54814285714286,291.26975,-0.8739,0.07314,-0.55906,0.745666666666667,0.224555555555556,0.562555555555556,56.144,0.879725,-0.2935875,0.3645625,-9.23666666666667,-37.4333333333333,0.0233333333333346,3.4795,-0.88926,-0.1671,-0.01096,-9.5366,-2.866,-16.5732,405.15375,1,0,1,1
24-May-2018 12:19:30,130.75,0.895671428571429,0.104542857142857,-0.208842857142857,-16.3854285714286,-3.06128571428571,5.54814285714286,291.26975,-0.8739,0.07314,-0.55906,0.745666666666667,0.224555555555556,0.562555555555556,56.144,0.879725,-0.2935875,0.3645625,-9.23666666666667,-37.4333333333333,0.0233333333333346,3.4795,-0.88926,-0.1671,-0.01096,-9.5366,-2.866,-16.5732,405.15375,1,0,1,1
24-May-2018 12:19:30,130.75,0.895671428571429,0.104542857142857,-0.208842857142857,-16.3854285714286,-3.06128571428571,5.54814285714286,291.26975,-0.8739,0.07314,-0.55906,0.745666666666667,0.224555555555556,0.562555555555556,56.144,0.879725,-0.2935875,0.3645625,-9.23666666666667,-37.4333333333333,0.0233333333333346,3.4795,-0.88926,-0.1671,-0.01096,-9.5366,-2.866,-16.5732,405.15375,1,0,1,1
24-May-2018 12:19:31,-48.6666666666667,0.925833333333333,0.08005,-0.253766666666667,62.4416666666667,4.6745,-18.615,324.4295,-0.87592,0.07026,-0.55656,0.6885,0.237375,0.328375,55.872,0.88394,-0.31278,0.4118,64.6083333333333,-7.235,23.2383333333333,3.685,-0.910114285714286,-0.192785714285714,-0.0958714285714286,-39.5468571428571,-7.779,-2.29085714285714,368.384333333333,1,1,0,0
24-May-2018 12:19:31,-48.6666666666667,0.925833333333333,0.08005,-0.253766666666667,62.4416666666667,4.6745,-18.615,324.4295,-0.87592,0.07026,-0.55656,0.6885,0.237375,0.328375,55.872,0.88394,-0.31278,0.4118,64.6083333333333,-7.235,23.2383333333333,3.685,-0.910114285714286,-0.192785714285714,-0.0958714285714286,-39.5468571428571,-7.779,-2.29085714285714,368.384333333333,1,1,0,0
24-May-2018 12:19:31,-48.6666666666667,0.925833333333333,0.08005,-0.253766666666667,62.4416666666667,4.6745,-18.615,324.4295,-0.87592,0.07026,-0.55656,0.6885,0.237375,0.328375,55.872,0.88394,-0.31278,0.4118,64.6083333333333,-7.235,23.2383333333333,3.685,-0.910114285714286,-0.192785714285714,-0.0958714285714286,-39.5468571428571,-7.779,-2.29085714285714,368.384333333333,1,1,0,0
24-May-2018 12:19:31,-48.6666666666667,0.925833333333333,0.08005,-0.253766666666667,62.4416666666667,4.6745,-18.615,324.4295,-0.87592,0.07026,-0.55656,0.6885,0.237375,0.328375,55.872,0.88394,-0.31278,0.4118,64.6083333333333,-7.235,23.2383333333333,3.685,-0.910114285714286,-0.192785714285714,-0.0958714285714286,-39.5468571428571,-7.779,-2.29085714285714,368.384333333333,1,1,0,0
24-May-2018 12:19:32,171.6,0.93402,0.0066,-0.1699,82.70875,-0.364500000000001,-21.39625,280.1295,-0.873933333333333,0.077,-0.557033333333333,0.819857142857143,1.24571428571429,0.732,56.4435,0.91106,-0.36554,0.0345,40.2321428571429,-29.3238571428571,-3.874,4.8266,-0.97535,-0.26785,-0.00913333333333333,-87.1323333333333,-7.56116666666667,18.6991666666667,512.5964,1,1,1,1
24-May-2018 12:19:32,171.6,0.93402,0.0066,-0.1699,82.70875,-0.364500000000001,-21.39625,280.1295,-0.873933333333333,0.077,-0.557033333333333,0.819857142857143,1.24571428571429,0.732,56.4435,0.91106,-0.36554,0.0345,40.2321428571429,-29.3238571428571,-3.874,4.8266,-0.97535,-0.26785,-0.00913333333333333,-87.1323333333333,-7.56116666666667,18.6991666666667,512.5964,1,1,1,1
24-May-2018 12:19:32,171.6,0.93402,0.0066,-0.1699,82.70875,-0.364500000000001,-21.39625,280.1295,-0.873933333333333,0.077,-0.557033333333333,0.819857142857143,1.24571428571429,0.732,56.4435,0.91106,-0.36554,0.0345,40.2321428571429,-29.3238571428571,-3.874,4.8266,-0.97535,-0.26785,-0.00913333333333333,-87.1323333333333,-7.56116666666667,18.6991666666667,512.5964,1,1,1,1
24-May-2018 12:19:32,171.6,0.93402,0.0066,-0.1699,82.70875,-0.364500000000001,-21.39625,280.1295,-0.873933333333333,0.077,-0.557033333333333,0.819857142857143,1.24571428571429,0.732,56.4435,0.91106,-0.36554,0.0345,40.2321428571429,-29.3238571428571,-3.874,4.8266,-0.97535,-0.26785,-0.00913333333333333,-87.1323333333333,-7.56116666666667,18.6991666666667,512.5964,1,1,1,1
24-May-2018 12:19:33,56.5555555555556,0.919875,0.13255,-0.2568875,20.1196666666667,8.42383333333333,-8.995,397.568,-0.87212,0.07452,-0.56434,1.443,1.73444444444444,-0.165444444444444,57.015,0.888583333333333,-0.20035,0.415633333333333,16.2925714285714,5.63142857142858,0.345857142857142,5.167,-0.87895,-0.23965,-0.17405,-14.80175,-7.39325,-27.66775,426.132666666667,1,1,1,1
24-May-2018 12:19:33,56.5555555555556,0.919875,0.13255,-0.2568875,20.1196666666667,8.42383333333333,-8.995,397.568,-0.87212,0.07452,-0.56434,1.443,1.73444444444444,-0.165444444444444,57.015,0.888583333333333,-0.20035,0.415633333333333,16.2925714285714,5.63142857142858,0.345857142857142,5.167,-0.87895,-0.23965,-0.17405,-14.80175,-7.39325,-27.66775,426.132666666667,1,1,1,1
24-May-2018 12:19:33,56.5555555555556,0.919875,0.13255,-0.2568875,20.1196666666667,8.42383333333333,-8.995,397.568,-0.87212,0.07452,-0.56434,1.443,1.73444444444444,-0.165444444444444,57.015,0.888583333333333,-0.20035,0.415633333333333,16.2925714285714,5.63142857142858,0.345857142857142,5.167,-0.87895,-0.23965,-0.17405,-14.80175,-7.39325,-27.66775,426.132666666667,1,1,1,1
24-May-2018 12:19:33,56.5555555555556,0.919875,0.13255,-0.2568875,20.1196666666667,8.42383333333333,-8.995,397.568,-0.87212,0.07452,-0.56434,1.443,1.73444444444444,-0.165444444444444,57.015,0.888583333333333,-0.20035,0.415633333333333,16.2925714285714,5.63142857142858,0.345857142857142,5.167,-0.87895,-0.23965,-0.17405,-14.80175,-7.39325,-27.66775,426.132666666667,1,1,1,1
24-May-2018 12:19:34,25.5,0.93555,0.06705,-0.177375,-17.84375,0.4505,5.5715,397.568,-0.86922,0.07166,-0.56398,1.699625,0.587875,0.327875,57.015,0.932866666666667,-0.369316666666667,0.0951666666666667,8.262,3.538,1.3196,6.5996,-0.955483333333333,-0.267533333333333,-0.0723,-4.3536,-1.7682,0.743999999999998,363.2252,1,1,1,1
24-May-2018 12:19:34,25.5,0.93555,0.06705,-0.177375,-17.84375,0.4505,5.5715,397.568,-0.86922,0.07166,-0.56398,1.699625,0.587875,0.327875,57.015,0.932866666666667,-0.369316666666667,0.0951666666666667,8.262,3.538,1.3196,6.5996,-0.955483333333333,-0.267533333333333,-0.0723,-4.3536,-1.7682,0.743999999999998,363.2252,1,1,1,1
24-May-2018 12:19:34,25.5,0.93555,0.06705,-0.177375,-17.84375,0.4505,5.5715,397.568,-0.86922,0.07166,-0.56398,1.699625,0.587875,0.327875,57.015,0.932866666666667,-0.369316666666667,0.0951666666666667,8.262,3.538,1.3196,6.5996,-0.955483333333333,-0.267533333333333,-0.0723,-4.3536,-1.7682,0.743999999999998,363.2252,1,1,1,1
24-May-2018 12:19:34,25.5,0.93555,0.06705,-0.177375,-17.84375,0.4505,5.5715,397.568,-0.86922,0.07166,-0.56398,1.699625,0.587875,0.327875,57.015,0.932866666666667,-0.369316666666667,0.0951666666666667,8.262,3.538,1.3196,6.5996,-0.955483333333333,-0.267533333333333,-0.0723,-4.3536,-1.7682,0.743999999999998,363.2252,1,1,1,1
24-May-2018 12:19:35,185.625,0.879355555555555,0.110788888888889,-0.277177777777778,24.4525,2.258125,-6.764625,397.568,-0.87002,0.07182,-0.56314,0.191111111111111,-2.423,1.53122222222222,59.627,0.800383333333333,-0.231133333333333,0.312666666666667,-12.58,-31.055,20.7575,7.402,-0.930514285714286,-0.237371428571429,-0.0932,-32.8965,-10.8028333333333,4.98983333333333,427.824,1,0,1,1
24-May-2018 12:19:35,185.625,0.879355555555555,0.110788888888889,-0.277177777777778,24.4525,2.258125,-6.764625,397.568,-0.87002,0.07182,-0.56314,0.191111111111111,-2.423,1.53122222222222,59.627,0.800383333333333,-0.231133333333333,0.312666666666667,-12.58,-31.055,20.7575,7.402,-0.930514285714286,-0.237371428571429,-0.0932,-32.8965,-10.8028333333333,4.98983333333333,427.824,1,0,1,1
24-May-2018 12:19:35,185.625,0.879355555555555,0.110788888888889,-0.277177777777778,24.4525,2.258125,-6.764625,397.568,-0.87002,0.07182,-0.56314,0.191111111111111,-2.423,1.53122222222222,59.627,0.800383333333333,-0.231133333333333,0.312666666666667,-12.58,-31.055,20.7575,7.402,-0.930514285714286,-0.237371428571429,-0.0932,-32.8965,-10.8028333333333,4.98983333333333,427.824,1,0,1,1
24-May-2018 12:19:35,185.625,0.879355555555555,0.110788888888889,-0.277177777777778,24.4525,2.258125,-6.764625,397.568,-0.87002,0.07182,-0.56314,0.191111111111111,-2.423,1.53122222222222,59.627,0.800383333333333,-0.231133333333333,0.312666666666667,-12.58,-31.055,20.7575,7.402,-0.930514285714286,-0.237371428571429,-0.0932,-32.8965,-10.8028333333333,4.98983333333333,427.824,1,0,1,1
24-May-2018 12:19:36,-4.2,0.922971428571429,0.0811142857142857,-0.285371428571429,-73.977,-8.0688,23.357,397.568,-0.878525,0.0797,-0.546,1.54925,-2.99525,5.632875,59.627,0.920325,-0.316675,-0.05045,-93.0375,29.64075,-6.346625,5.765,-0.9107,-0.324633333333333,-0.1858,68.2395,24.2835,-12.1645,427.48425,1,0,1,1
24-May-2018 12:19:36,-4.2,0.922971428571429,0.0811142857142857,-0.285371428571429,-73.977,-8.0688,23.357,397.568,-0.878525,0.0797,-0.546,1.54925,-2.99525,5.632875,59.627,0.920325,-0.316675,-0.05045,-93.0375,29.64075,-6.346625,5.765,-0.9107,-0.324633333333333,-0.1858,68.2395,24.2835,-12.1645,427.48425,1,0,1,1
24-May-2018 12:19:36,-4.2,0.922971428571429,0.0811142857142857,-0.285371428571429,-73.977,-8.0688,23.357,397.568,-0.878525,0.0797,-0.546,1.54925,-2.99525,5.632875,59.627,0.920325,-0.316675,-0.05045,-93.0375,29.64075,-6.346625,5.765,-0.9107,-0.324633333333333,-0.1858,68.2395,24.2835,-12.1645,427.48425,1,0,1,1
24-May-2018 12:19:36,-4.2,0.922971428571429,0.0811142857142857,-0.285371428571429,-73.977,-8.0688,23.357,397.568,-0.878525,0.0797,-0.546,1.54925,-2.99525,5.632875,59.627,0.920325,-0.316675,-0.05045,-93.0375,29.64075,-6.346625,5.765,-0.9107,-0.324633333333333,-0.1858,68.2395,24.2835,-12.1645,427.48425,1,0,1,1
24-May-2018 12:19:37,10.8888888888889,0.903842857142857,0.199185714285714,-0.288628571428571,-78.1833333333333,-0.106666666666667,22.9158333333333,250.1415,-0.87564,0.07888,-0.5592,0.361,2.73722222222222,1.36277777777778,59.4903333333333,0.968525,-0.138425,0.398875,-66.82,7.259,-0.306000000000001,3.43325,-0.922866666666667,-0.3033,-0.184516666666667,76.3294,22.7806,8,590.54425,1,1,1,1
24-May-2018 12:19:37,10.8888888888889,0.903842857142857,0.199185714285714,-0.288628571428571,-78.1833333333333,-0.106666666666667,22.9158333333333,250.1415,-0.87564,0.07888,-0.5592,0.361,2.73722222222222,1.36277777777778,59.4903333333333,0.968525,-0.138425,0.398875,-66.82,7.259,-0.306000000000001,3.43325,-0.922866666666667,-0.3033,-0.184516666666667,76.3294,22.7806,8,590.54425,1,1,1,1
24-May-2018 12:19:37,10.8888888888889,0.903842857142857,0.199185714285714,-0.288628571428571,-78.1833333333333,-0.106666666666667,22.9158333333333,250.1415,-0.87564,0.07888,-0.5592,0.361,2.73722222222222,1.36277777777778,59.4903333333333,0.968525,-0.138425,0.398875,-66.82,7.259,-0.306000000000001,3.43325,-0.922866666666667,-0.3033,-0.184516666666667,76.3294,22.7806,8,590.54425,1,1,1,1
24-May-2018 12:19:37,10.8888888888889,0.903842857142857,0.199185714285714,-0.288628571428571,-78.1833333333333,-0.106666666666667,22.9158333333333,250.1415,-0.87564,0.07888,-0.5592,0.361,2.73722222222222,1.36277777777778,59.4903333333333,0.968525,-0.138425,0.398875,-66.82,7.259,-0.306000000000001,3.43325,-0.922866666666667,-0.3033,-0.184516666666667,76.3294,22.7806,8,590.54425,1,1,1,1
24-May-2018 12:19:38,49.8,0.94365,0.0648833333333333,-0.07545,-40.62,-18.5264,4.219,300.813166666667,-0.871,0.092025,-0.55795,-1.67,-1.50777777777778,2.94044444444444,59.217,0.8667125,-0.3984125,0.026575,-24.04,3.6346,6.668,3.369,-0.906966666666667,-0.3034,0.015,24.9302857142857,7.14285714285714,-18.1618571428571,495.476166666667,1,1,1,1
24-May-2018 12:19:38,49.8,0.94365,0.0648833333333333,-0.07545,-40.62,-18.5264,4.219,300.813166666667,-0.871,0.092025,-0.55795,-1.67,-1.50777777777778,2.94044444444444,59.217,0.8667125,-0.3984125,0.026575,-24.04,3.6346,6.668,3.369,-0.906966666666667,-0.3034,0.015,24.9302857142857,7.14285714285714,-18.1618571428571,495.476166666667,1,1,1,1
24-May-2018 12:19:38,49.8,0.94365,0.0648833333333333,-0.07545,-40.62,-18.5264,4.219,300.813166666667,-0.871,0.092025,-0.55795,-1.67,-1.50777777777778,2.94044444444444,59.217,0.8667125,-0.3984125,0.026575,-24.04,3.6346,6.668,3.369,-0.906966666666667,-0.3034,0.015,24.9302857142857,7.14285714285714,-18.1618571428571,495.476166666667,1,1,1,1
24-May-2018 12:19:38,49.8,0.94365,0.0648833333333333,-0.07545,-40.62,-18.5264,4.219,300.813166666667,-0.871,0.092025,-0.55795,-1.67,-1.50777777777778,2.94044444444444,59.217,0.8667125,-0.3984125,0.026575,-24.04,3.6346,6.668,3.369,-0.906966666666667,-0.3034,0.015,24.9302857142857,7.14285714285714,-18.1618571428571,495.476166666667,1,1,1,1
24-May-2018 12:19:39,46.3,0.8855,0.0771833333333333,-0.342166666666667,4.7855,-0.0761666666666668,-10.28,287.719,-0.87606,0.10414,-0.54986,-2.69222222222222,-0.600777777777778,1.49733333333333,59.217,0.87355,-0.29465,0.1635,34.102,3.062,2.718,3.0144,-0.9287,-0.29625,-0.08165,21.5732,9.9392,28.0124,377.6245,1,1,1,1
24-May-2018 12:19:39,46.3,0.8855,0.0771833333333333,-0.342166666666667,4.7855,-0.0761666666666668,-10.28,287.719,-0.87606,0.10414,-0.54986,-2.69222222222222,-0.600777777777778,1.49733333333333,59.217,0.87355,-0.29465,0.1635,34.102,3.062,2.718,3.0144,-0.9287,-0.29625,-0.08165,21.5732,9.9392,28.0124,377.6245,1,1,1,1
24-May-2018 12:19:39,46.3,0.8855,0.0771833333333333,-0.342166666666667,4.7855,-0.0761666666666668,-10.28,287.719,-0.87606,0.10414,-0.54986,-2.69222222222222,-0.600777777777778,1.49733333333333,59.217,0.87355,-0.29465,0.1635,34.102,3.062,2.718,3.0144,-0.9287,-0.29625,-0.08165,21.5732,9.9392,28.0124,377.6245,1,1,1,1
24-May-2018 12:19:39,46.3,0.8855,0.0771833333333333,-0.342166666666667,4.7855,-0.0761666666666668,-10.28,287.719,-0.87606,0.10414,-0.54986,-2.69222222222222,-0.600777777777778,1.49733333333333,59.217,0.87355,-0.29465,0.1635,34.102,3.062,2.718,3.0144,-0.9287,-0.29625,-0.08165,21.5732,9.9392,28.0124,377.6245,1,1,1,1
24-May-2018 12:19:40,125.363636363636,0.91525,0.08395,-0.29025,9.99857142857143,-2.67585714285714,-1.72857142857143,267.876666666667,-0.878375,0.111025,-0.550125,-1.22888888888889,0.793333333333333,0.847222222222222,59.666,0.929116666666667,-0.322516666666667,0.0332166666666667,27.17,25.6766666666667,-7.05833333333333,3.8155,-0.8916,-0.196775,0.000974999999999998,-11.5122,-3.317,-11.805,380.0894,1,1,1,1
24-May-2018 12:19:40,125.363636363636,0.91525,0.08395,-0.29025,9.99857142857143,-2.67585714285714,-1.72857142857143,267.876666666667,-0.878375,0.111025,-0.550125,-1.22888888888889,0.793333333333333,0.847222222222222,59.666,0.929116666666667,-0.322516666666667,0.0332166666666667,27.17,25.6766666666667,-7.05833333333333,3.8155,-0.8916,-0.196775,0.000974999999999998,-11.5122,-3.317,-11.805,380.0894,1,1,1,1
24-May-2018 12:19:40,125.363636363636,0.91525,0.08395,-0.29025,9.99857142857143,-2.67585714285714,-1.72857142857143,267.876666666667,-0.878375,0.111025,-0.550125,-1.22888888888889,0.793333333333333,0.847222222222222,59.666,0.929116666666667,-0.322516666666667,0.0332166666666667,27.17,25.6766666666667,-7.05833333333333,3.8155,-0.8916,-0.196775,0.000974999999999998,-11.5122,-3.317,-11.805,380.0894,1,1,1,1
24-May-2018 12:19:40,125.363636363636,0.91525,0.08395,-0.29025,9.99857142857143,-2.67585714285714,-1.72857142857143,267.876666666667,-0.878375,0.111025,-0.550125,-1.22888888888889,0.793333333333333,0.847222222222222,59.666,0.929116666666667,-0.322516666666667,0.0332166666666667,27.17,25.6766666666667,-7.05833333333333,3.8155,-0.8916,-0.196775,0.000974999999999998,-11.5122,-3.317,-11.805,380.0894,1,1,1,1
