TIME,HELMET_RAW,BELT_ACC_X,BELT_ACC_Y,BELT_ACC_Z,BELT_ANG_X,BELT_ANG_Y,BELT_ANG_Z,BELT_LUMINOSITY,NECK_ACC_X,NECK_ACC_Y,NECK_ACC_Z,NECK_ANG_X,NECK_ANG_Y,NECK_ANG_Z,NECK_LUMINOSITY,PCKT_ACC_X,PCKT_ACC_Y,PCKT_ACC_Z,PCKT_ANG_X,PCKT_ANG_Y,PCKT_ANG_Z,PCKT_LUMINOSITY,WRST_ACC_X,WRST_ACC_Y,WRST_ACC_Z,WRST_ANG_X,WRST_ANG_Y,WRST_ANG_Z,WRST_LUMINOSITY,IR_1,IR_2,IR_3,IR_4
24-May-2018 12:15:52,0,0.9525125,0.0432125,-0.1081375,-0.269111111111111,-1.48477777777778,0.238333333333333,164.075,-0.91965,0.309225,-0.3662,0.691166666666667,0.0743333333333333,0.162833333333333,46.072,0.951233333333333,-0.187933333333333,0.06405,-0.5572,-1.264,-0.446,1.5505,0.89105,-0.48825,0.149125,-3.29283333333333,2.42883333333333,0.762,719.339,1,1,1,1
24-May-2018 12:15:52,0,0.9525125,0.0432125,-0.1081375,-0.269111111111111,-1.48477777777778,0.238333333333333,164.075,-0.91965,0.309225,-0.3662,0.691166666666667,0.0743333333333333,0.162833333333333,46.072,0.951233333333333,-0.187933333333333,0.06405,-0.5572,-1.264,-0.446,1.5505,0.89105,-0.48825,0.149125,-3.29283333333333,2.42883333333333,0.762,719.339,1,1,1,1
24-May-2018 12:15:52,0,0.9525125,0.0432125,-0.1081375,-0.269111111111111,-1.48477777777778,0.238333333333333,0,-0.91965,0.309225,-0.3662,0.691166666666667,0.0743333333333333,0.162833333333333,46.072,0.951233333333333,-0.187933333333333,0.06405,-0.5572,-1.264,-0.446,1.5505,0.89105,-0.48825,0.149125,-3.29283333333333,2.42883333333333,0.762,719.339,1,1,1,1
24-May-2018 12:15:52,0,0.9525125,0.0432125,-0.1081375,-0.269111111111111,-1.48477777777778,0.238333333333333,0,-0.91965,0.309225,-0.3662,0.691166666666667,0.0743333333333333,0.162833333333333,46.072,0.951233333333333,-0.187933333333333,0.06405,-0.5572,-1.264,-0.446,1.5505,0.89105,-0.48825,0.149125,-3.29283333333333,2.42883333333333,0.762,719.339,1,1,1,1
24-May-2018 12:15:53,0,0.9468,0.0445111111111111,-0.136911111111111,2.97042857142857,0.00114285714285724,0.427857142857143,313.458,-0.91944,0.30538,-0.35942,0.706,-0.167555555555556,0.0908888888888889,46.072,0.950342857142857,-0.187957142857143,0.0606285714285714,-0.393666666666667,-0.648166666666667,-0.0291666666666667,1.5195,0.85962,-0.57916,-0.02352,7.55214285714286,1.08885714285714,-1.14114285714286,584.692,1,1,1,1
24-May-2018 12:15:53,0,0.9468,0.0445111111111111,-0.136911111111111,2.97042857142857,0.00114285714285724,0.427857142857143,313.458,-0.91944,0.30538,-0.35942,0.706,-0.167555555555556,0.0908888888888889,46.072,0.950342857142857,-0.187957142857143,0.0606285714285714,-0.393666666666667,-0.648166666666667,-0.0291666666666667,1.5195,0.85962,-0.57916,-0.02352,7.55214285714286,1.08885714285714,-1.14114285714286,584.692,1,1,1,1
24-May-2018 12:15:53,0,0.9468,0.0445111111111111,-0.136911111111111,2.97042857142857,0.00114285714285724,0.427857142857143,313.458,-0.91944,0.30538,-0.35942,0.706,-0.167555555555556,0.0908888888888889,46.072,0.950342857142857,-0.187957142857143,0.0606285714285714,-0.393666666666667,-0.648166666666667,-0.0291666666666667,1.5195,0.85962,-0.57916,-0.02352,7.55214285714286,1.08885714285714,-1.14114285714286,584.692,1,1,1,1
24-May-2018 12:15:53,0,0.9468,0.0445111111111111,-0.136911111111111,2.97042857142857,0.00114285714285724,0.427857142857143,313.458,-0.91944,0.30538,-0.35942,0.706,-0.167555555555556,0.0908888888888889,46.072,0.950342857142857,-0.187957142857143,0.0606285714285714,-0.393666666666667,-0.648166666666667,-0.0291666666666667,1.5195,0.85962,-0.57916,-0.02352,7.55214285714286,1.08885714285714,-1.14114285714286,584.692,1,1,1,1
24-May-2018 12:15:54,0,0.94854,0.03712,-0.1226,0.388333333333333,0.205,0.203333333333333,317.446333333333,-0.92354,0.3058,-0.35824,-0.097875,-0.574625,-0.85,46.012,0.95014,-0.1907,0.07256,-0.241857142857143,-0.822857142857143,-0.222857142857143,1.57125,0.8665,-0.56016,0.03944,5.6952,1.561,-1.122,621.3114,1,1,1,1
24-May-2018 12:15:54,0,0.94854,0.03712,-0.1226,0.388333333333333,0.205,0.203333333333333,317.446333333333,-0.92354,0.3058,-0.35824,-0.097875,-0.574625,-0.85,46.012,0.95014,-0.1907,0.07256,-0.241857142857143,-0.822857142857143,-0.222857142857143,1.57125,0.8665,-0.56016,0.03944,5.6952,1.561,-1.122,621.3114,1,1,1,1
24-May-2018 12:15:54,0,0.94854,0.03712,-0.1226,0.388333333333333,0.205,0.203333333333333,317.446333333333,-0.92354,0.3058,-0.35824,-0.097875,-0.574625,-0.85,46.012,0.95014,-0.1907,0.07256,-0.241857142857143,-0.822857142857143,-0.222857142857143,1.57125,0.8665,-0.56016,0.03944,5.6952,1.561,-1.122,621.3114,1,1,1,1
24-May-2018 12:15:54,0,0.94854,0.03712,-0.1226,0.388333333333333,0.205,0.203333333333333,317.446333333333,-0.92354,0.3058,-0.35824,-0.097875,-0.574625,-0.85,46.012,0.95014,-0.1907,0.07256,-0.241857142857143,-0.822857142857143,-0.222857142857143,1.57125,0.8665,-0.56016,0.03944,5.6952,1.561,-1.122,621.3114,1,1,1,1
24-May-2018 12:15:55,0,0.95072,0.03244,-0.12516,0.26125,0.420125,1.158625,317.3175,-0.92304,0.30048,-0.3601,1.3841,0.2023,-0.4475,45.992,0.9514,-0.1859,0.0670666666666667,-0.702,-1.142,-0.408,1.56983333333333,0.86794,-0.564,0.0251,-2.8902,0.7194,-0.305,618.325,1,1,1,1
24-May-2018 12:15:55,0,0.95072,0.03244,-0.12516,0.26125,0.420125,1.158625,317.3175,-0.92304,0.30048,-0.3601,1.3841,0.2023,-0.4475,45.992,0.9514,-0.1859,0.0670666666666667,-0.702,-1.142,-0.408,1.56983333333333,0.86794,-0.564,0.0251,-2.8902,0.7194,-0.305,618.325,1,1,1,1
24-May-2018 12:15:55,0,0.95072,0.03244,-0.12516,0.26125,0.420125,1.158625,317.3175,-0.92304,0.30048,-0.3601,1.3841,0.2023,-0.4475,45.992,0.9514,-0.1859,0.0670666666666667,-0.702,-1.142,-0.408,1.56983333333333,0.86794,-0.564,0.0251,-2.8902,0.7194,-0.305,618.325,1,1,1,1
24-May-2018 12:15:55,0,0.95072,0.03244,-0.12516,0.26125,0.420125,1.158625,317.3175,-0.92304,0.30048,-0.3601,1.3841,0.2023,-0.4475,45.992,0.9514,-0.1859,0.0670666666666667,-0.702,-1.142,-0.408,1.56983333333333,0.86794,-0.564,0.0251,-2.8902,0.7194,-0.305,618.325,1,1,1,1
24-May-2018 12:15:56,0,0.9489,0.03545,-0.12315,0.541625,0.125125,-0.11275,317.579,-0.92545,0.294775,-0.362975,1.81375,-0.91075,-0.01325,45.3745,0.950833333333333,-0.187133333333333,0.0707,-0.079,-0.79,-0.178833333333333,1.51866666666667,0.86724,0.05668,0.15828,54.4108333333334,0.335333333333333,-22.6625,703.974,1,1,1,1
24-May-2018 12:15:56,0,0.9489,0.03545,-0.12315,0.541625,0.125125,-0.11275,317.579,-0.92545,0.294775,-0.362975,1.81375,-0.91075,-0.01325,45.3745,0.950833333333333,-0.187133333333333,0.0707,-0.079,-0.79,-0.178833333333333,1.51866666666667,0.86724,0.05668,0.15828,54.4108333333334,0.335333333333333,-22.6625,703.974,1,1,1,1
24-May-2018 12:15:56,0,0.9489,0.03545,-0.12315,0.541625,0.125125,-0.11275,317.579,-0.92545,0.294775,-0.362975,1.81375,-0.91075,-0.01325,45.3745,0.950833333333333,-0.187133333333333,0.0707,-0.079,-0.79,-0.178833333333333,1.51866666666667,0.86724,0.05668,0.15828,54.4108333333334,0.335333333333333,-22.6625,703.974,1,1,1,1
24-May-2018 12:15:56,0,0.9489,0.03545,-0.12315,0.541625,0.125125,-0.11275,317.579,-0.92545,0.294775,-0.362975,1.81375,-0.91075,-0.01325,45.3745,0.950833333333333,-0.187133333333333,0.0707,-0.079,-0.79,-0.178833333333333,1.51866666666667,0.86724,0.05668,0.15828,54.4108333333334,0.335333333333333,-22.6625,703.974,1,1,1,1
24-May-2018 12:15:57,0,0.950866666666667,0.0360833333333333,-0.124616666666667,0.679125,-0.005625,0.35075,305.751666666667,-0.92572,0.29544,-0.3601,2.229,-1.53388888888889,0.366444444444444,44.757,0.95168,-0.1851,0.07194,-0.6675,0.27575,-0.4825,1.51666666666667,0.9279,0.31066,0.32612,-6.372,-2.02216666666667,8.99383333333333,736.62,1,1,1,1
24-May-2018 12:15:57,0,0.950866666666667,0.0360833333333333,-0.124616666666667,0.679125,-0.005625,0.35075,305.751666666667,-0.92572,0.29544,-0.3601,2.229,-1.53388888888889,0.366444444444444,44.757,0.95168,-0.1851,0.07194,-0.6675,0.27575,-0.4825,1.51666666666667,0.9279,0.31066,0.32612,-6.372,-2.02216666666667,8.99383333333333,736.62,1,1,1,1
24-May-2018 12:15:57,0,0.950866666666667,0.0360833333333333,-0.124616666666667,0.679125,-0.005625,0.35075,305.751666666667,-0.92572,0.29544,-0.3601,2.229,-1.53388888888889,0.366444444444444,44.757,0.95168,-0.1851,0.07194,-0.6675,0.27575,-0.4825,1.51666666666667,0.9279,0.31066,0.32612,-6.372,-2.02216666666667,8.99383333333333,736.62,1,1,1,1
24-May-2018 12:15:57,0,0.950866666666667,0.0360833333333333,-0.124616666666667,0.679125,-0.005625,0.35075,305.751666666667,-0.92572,0.29544,-0.3601,2.229,-1.53388888888889,0.366444444444444,44.757,0.95168,-0.1851,0.07194,-0.6675,0.27575,-0.4825,1.51666666666667,0.9279,0.31066,0.32612,-6.372,-2.02216666666667,8.99383333333333,736.62,1,1,1,1
24-May-2018 12:15:58,0,0.948416666666667,0.0375333333333333,-0.128683333333333,-0.892,-0.0596666666666666,-0.25,299.867333333333,-0.928075,0.2915,-0.35485,0.291875,0.094375,-0.857,44.757,0.94748,-0.1282,0.19328,5.11483333333333,8.58566666666667,-7.40166666666667,1.70625,0.809183333333333,-0.308533333333333,-0.169016666666667,-60.512,-27.6096,45.1828,554.5645,1,1,1,1
24-May-2018 12:15:58,0,0.948416666666667,0.0375333333333333,-0.128683333333333,-0.892,-0.0596666666666666,-0.25,299.867333333333,-0.928075,0.2915,-0.35485,0.291875,0.094375,-0.857,44.757,0.94748,-0.1282,0.19328,5.11483333333333,8.58566666666667,-7.40166666666667,1.70625,0.809183333333333,-0.308533333333333,-0.169016666666667,-60.512,-27.6096,45.1828,554.5645,1,1,1,1
24-May-2018 12:15:58,0,0.948416666666667,0.0375333333333333,-0.128683333333333,-0.892,-0.0596666666666666,-0.25,299.867333333333,-0.928075,0.2915,-0.35485,0.291875,0.094375,-0.857,44.757,0.94748,-0.1282,0.19328,5.11483333333333,8.58566666666667,-7.40166666666667,1.70625,0.809183333333333,-0.308533333333333,-0.169016666666667,-60.512,-27.6096,45.1828,554.5645,1,1,1,1
24-May-2018 12:15:58,0,0.948416666666667,0.0375333333333333,-0.128683333333333,-0.892,-0.0596666666666666,-0.25,299.867333333333,-0.928075,0.2915,-0.35485,0.291875,0.094375,-0.857,44.757,0.94748,-0.1282,0.19328,5.11483333333333,8.58566666666667,-7.40166666666667,1.70625,0.809183333333333,-0.308533333333333,-0.169016666666667,-60.512,-27.6096,45.1828,554.5645,1,1,1,1
24-May-2018 12:15:59,0,0.948675,0.044325,-0.12965,0.3065,-0.3095,0.297875,319.385,-0.929275,0.2919,-0.353525,0.339555555555556,-0.430111111111111,-0.532111111111111,43.5645,0.9556,-0.0725333333333333,0.2296,-1.656,-2.91,-0.3516,1.8352,0.641233333333333,-0.797366666666667,-0.226116666666667,8.01833333333333,3.4655,-2.9675,350.350333333333,1,1,1,1
24-May-2018 12:15:59,0,0.948675,0.044325,-0.12965,0.3065,-0.3095,0.297875,319.385,-0.929275,0.2919,-0.353525,0.339555555555556,-0.430111111111111,-0.532111111111111,43.5645,0.9556,-0.0725333333333333,0.2296,-1.656,-2.91,-0.3516,1.8352,0.641233333333333,-0.797366666666667,-0.226116666666667,8.01833333333333,3.4655,-2.9675,350.350333333333,1,1,1,1
24-May-2018 12:15:59,0,0.948675,0.044325,-0.12965,0.3065,-0.3095,0.297875,319.385,-0.929275,0.2919,-0.353525,0.339555555555556,-0.430111111111111,-0.532111111111111,43.5645,0.9556,-0.0725333333333333,0.2296,-1.656,-2.91,-0.3516,1.8352,0.641233333333333,-0.797366666666667,-0.226116666666667,8.01833333333333,3.4655,-2.9675,350.350333333333,1,1,1,1
24-May-2018 12:15:59,0,0.948675,0.044325,-0.12965,0.3065,-0.3095,0.297875,319.385,-0.929275,0.2919,-0.353525,0.339555555555556,-0.430111111111111,-0.532111111111111,43.5645,0.9556,-0.0725333333333333,0.2296,-1.656,-2.91,-0.3516,1.8352,0.641233333333333,-0.797366666666667,-0.226116666666667,8.01833333333333,3.4655,-2.9675,350.350333333333,1,1,1,1
24-May-2018 12:16:00,0,0.7481125,0.0309375,-0.5658,-2.954875,-34.495,4.597,319.385,-0.93134,0.2904,-0.34934,1.45655555555556,0.206333333333333,-0.146777777777778,43.167,0.9544,-0.0973857142857143,0.2051,-1.12714285714286,-8.11314285714286,4.90514285714286,1.807,0.7587,-0.65582,-0.04248,7.94225,24.95425,-21.61575,449.3776,1,1,1,1
24-May-2018 12:16:00,0,0.7481125,0.0309375,-0.5658,-2.954875,-34.495,4.597,319.385,-0.93134,0.2904,-0.34934,1.45655555555556,0.206333333333333,-0.146777777777778,43.167,0.9544,-0.0973857142857143,0.2051,-1.12714285714286,-8.11314285714286,4.90514285714286,1.807,0.7587,-0.65582,-0.04248,7.94225,24.95425,-21.61575,449.3776,1,1,1,1
24-May-2018 12:16:00,0,0.7481125,0.0309375,-0.5658,-2.954875,-34.495,4.597,319.385,-0.93134,0.2904,-0.34934,1.45655555555556,0.206333333333333,-0.146777777777778,43.167,0.9544,-0.0973857142857143,0.2051,-1.12714285714286,-8.11314285714286,4.90514285714286,1.807,0.7587,-0.65582,-0.04248,7.94225,24.95425,-21.61575,449.3776,1,1,1,1
24-May-2018 12:16:00,0,0.7481125,0.0309375,-0.5658,-2.954875,-34.495,4.597,319.385,-0.93134,0.2904,-0.34934,1.45655555555556,0.206333333333333,-0.146777777777778,43.167,0.9544,-0.0973857142857143,0.2051,-1.12714285714286,-8.11314285714286,4.90514285714286,1.807,0.7587,-0.65582,-0.04248,7.94225,24.95425,-21.61575,449.3776,1,1,1,1
24-May-2018 12:16:01,0,0.522944444444444,0.0251,-0.808211111111111,1.16725,-0.926625,-0.0585,319.385,-0.929675,0.28685,-0.349,2.16133333333333,0.440777777777778,0.691333333333333,43.167,0.95178,-0.17858,0.09558,0.0883999999999999,-1.2414,0.977,1.7835,0.853066666666667,-0.526866666666667,0.196883333333333,-17.0634285714286,9.47742857142857,0.862428571428572,652.9595,1,1,1,1
24-May-2018 12:16:01,0,0.522944444444444,0.0251,-0.808211111111111,1.16725,-0.926625,-0.0585,319.385,-0.929675,0.28685,-0.349,2.16133333333333,0.440777777777778,0.691333333333333,43.167,0.95178,-0.17858,0.09558,0.0883999999999999,-1.2414,0.977,1.7835,0.853066666666667,-0.526866666666667,0.196883333333333,-17.0634285714286,9.47742857142857,0.862428571428572,652.9595,1,1,1,1
24-May-2018 12:16:01,0,0.522944444444444,0.0251,-0.808211111111111,1.16725,-0.926625,-0.0585,319.385,-0.929675,0.28685,-0.349,2.16133333333333,0.440777777777778,0.691333333333333,43.167,0.95178,-0.17858,0.09558,0.0883999999999999,-1.2414,0.977,1.7835,0.853066666666667,-0.526866666666667,0.196883333333333,-17.0634285714286,9.47742857142857,0.862428571428572,652.9595,1,1,1,1
24-May-2018 12:16:01,0,0.522944444444444,0.0251,-0.808211111111111,1.16725,-0.926625,-0.0585,319.385,-0.929675,0.28685,-0.349,2.16133333333333,0.440777777777778,0.691333333333333,43.167,0.95178,-0.17858,0.09558,0.0883999999999999,-1.2414,0.977,1.7835,0.853066666666667,-0.526866666666667,0.196883333333333,-17.0634285714286,9.47742857142857,0.862428571428572,652.9595,1,1,1,1
24-May-2018 12:16:02,0,0.693457142857143,0.0196857142857143,-0.6503,3.57022222222222,37.0018888888889,-2.47,319.385,-0.9302,0.28716,-0.35424,0.5069,2.1658,0.342,44.451,0.951416666666667,-0.176183333333333,0.0979333333333333,-1.1206,-2.472,-0.6816,1.6955,0.843975,-0.591,-0.0417,-9.4815,-8.43483333333333,1.0365,623.7515,1,1,1,1
24-May-2018 12:16:02,0,0.693457142857143,0.0196857142857143,-0.6503,3.57022222222222,37.0018888888889,-2.47,319.385,-0.9302,0.28716,-0.35424,0.5069,2.1658,0.342,44.451,0.951416666666667,-0.176183333333333,0.0979333333333333,-1.1206,-2.472,-0.6816,1.6955,0.843975,-0.591,-0.0417,-9.4815,-8.43483333333333,1.0365,623.7515,1,1,1,1
24-May-2018 12:16:02,0,0.693457142857143,0.0196857142857143,-0.6503,3.57022222222222,37.0018888888889,-2.47,319.385,-0.9302,0.28716,-0.35424,0.5069,2.1658,0.342,44.451,0.951416666666667,-0.176183333333333,0.0979333333333333,-1.1206,-2.472,-0.6816,1.6955,0.843975,-0.591,-0.0417,-9.4815,-8.43483333333333,1.0365,623.7515,1,1,1,1
24-May-2018 12:16:02,0,0.693457142857143,0.0196857142857143,-0.6503,3.57022222222222,37.0018888888889,-2.47,319.385,-0.9302,0.28716,-0.35424,0.5069,2.1658,0.342,44.451,0.951416666666667,-0.176183333333333,0.0979333333333333,-1.1206,-2.472,-0.6816,1.6955,0.843975,-0.591,-0.0417,-9.4815,-8.43483333333333,1.0365,623.7515,1,1,1,1
24-May-2018 12:16:03,0,0.94708,0.035,-0.12654,1.0175,5.74,0.0633333333333333,301.965333333333,-0.927225,0.286075,-0.35675,1.43283333333333,1.37316666666667,-0.0393333333333333,44.451,0.9519,-0.1829,0.0793714285714286,0.94525,-1.475,0.154,1.632,0.858971428571428,-0.565228571428571,-0.0130285714285714,-1.89025,4.90875,-0.183,547.3075,1,1,1,1
24-May-2018 12:16:03,0,0.94708,0.035,-0.12654,1.0175,5.74,0.0633333333333333,301.965333333333,-0.927225,0.286075,-0.35675,1.43283333333333,1.37316666666667,-0.0393333333333333,44.451,0.9519,-0.1829,0.0793714285714286,0.94525,-1.475,0.154,1.632,0.858971428571428,-0.565228571428571,-0.0130285714285714,-1.89025,4.90875,-0.183,547.3075,1,1,1,1
24-May-2018 12:16:03,0,0.94708,0.035,-0.12654,1.0175,5.74,0.0633333333333333,301.965333333333,-0.927225,0.286075,-0.35675,1.43283333333333,1.37316666666667,-0.0393333333333333,44.451,0.9519,-0.1829,0.0793714285714286,0.94525,-1.475,0.154,1.632,0.858971428571428,-0.565228571428571,-0.0130285714285714,-1.89025,4.90875,-0.183,547.3075,1,1,1,1
24-May-2018 12:16:03,0,0.94708,0.035,-0.12654,1.0175,5.74,0.0633333333333333,301.965333333333,-0.927225,0.286075,-0.35675,1.43283333333333,1.37316666666667,-0.0393333333333333,44.451,0.9519,-0.1829,0.0793714285714286,0.94525,-1.475,0.154,1.632,0.858971428571428,-0.565228571428571,-0.0130285714285714,-1.89025,4.90875,-0.183,547.3075,1,1,1,1
24-May-2018 12:16:04,0,0.9472,0.03306,-0.1498,2.57183333333333,-0.881,0.396666666666667,309.3195,-0.927475,0.28455,-0.357975,0.8186,0.9525,0.4213,44.451,0.95302,-0.17848,0.08012,-0.33225,-0.6375,-0.255,1.605,0.849025,-0.574475,-0.052025,-28.744,10.2194,7.8536,584.092,1,1,1,1
24-May-2018 12:16:04,0,0.9472,0.03306,-0.1498,2.57183333333333,-0.881,0.396666666666667,309.3195,-0.927475,0.28455,-0.357975,0.8186,0.9525,0.4213,44.451,0.95302,-0.17848,0.08012,-0.33225,-0.6375,-0.255,1.605,0.849025,-0.574475,-0.052025,-28.744,10.2194,7.8536,584.092,1,1,1,1
24-May-2018 12:16:04,0,0.9472,0.03306,-0.1498,2.57183333333333,-0.881,0.396666666666667,309.3195,-0.927475,0.28455,-0.357975,0.8186,0.9525,0.4213,44.451,0.95302,-0.17848,0.08012,-0.33225,-0.6375,-0.255,1.605,0.849025,-0.574475,-0.052025,-28.744,10.2194,7.8536,584.092,1,1,1,1
24-May-2018 12:16:04,0,0.9472,0.03306,-0.1498,2.57183333333333,-0.881,0.396666666666667,309.3195,-0.927475,0.28455,-0.357975,0.8186,0.9525,0.4213,44.451,0.95302,-0.17848,0.08012,-0.33225,-0.6375,-0.255,1.605,0.849025,-0.574475,-0.052025,-28.744,10.2194,7.8536,584.092,1,1,1,1
24-May-2018 12:16:05,0,0.9454875,0.0239875,-0.1488,1.91083333333333,0.398166666666667,0.2045,302.585,-0.92738,0.28602,-0.35934,0.583333333333333,0.400555555555556,0.901444444444444,45.845,0.9519,-0.18155,0.0890333333333333,-1.2912,-0.316,-0.53,1.70625,0.794257142857143,-0.657871428571429,-0.192857142857143,-10.9512,4.0976,1.6708,576.491,1,1,1,1
24-May-2018 12:16:05,0,0.9454875,0.0239875,-0.1488,1.91083333333333,0.398166666666667,0.2045,302.585,-0.92738,0.28602,-0.35934,0.583333333333333,0.400555555555556,0.901444444444444,45.845,0.9519,-0.18155,0.0890333333333333,-1.2912,-0.316,-0.53,1.70625,0.794257142857143,-0.657871428571429,-0.192857142857143,-10.9512,4.0976,1.6708,576.491,1,1,1,1
24-May-2018 12:16:05,0,0.9454875,0.0239875,-0.1488,1.91083333333333,0.398166666666667,0.2045,302.585,-0.92738,0.28602,-0.35934,0.583333333333333,0.400555555555556,0.901444444444444,45.845,0.9519,-0.18155,0.0890333333333333,-1.2912,-0.316,-0.53,1.70625,0.794257142857143,-0.657871428571429,-0.192857142857143,-10.9512,4.0976,1.6708,576.491,1,1,1,1
24-May-2018 12:16:05,0,0.9454875,0.0239875,-0.1488,1.91083333333333,0.398166666666667,0.2045,302.585,-0.92738,0.28602,-0.35934,0.583333333333333,0.400555555555556,0.901444444444444,45.845,0.9519,-0.18155,0.0890333333333333,-1.2912,-0.316,-0.53,1.70625,0.794257142857143,-0.657871428571429,-0.192857142857143,-10.9512,4.0976,1.6708,576.491,1,1,1,1
24-May-2018 12:16:06,0,0.945083333333333,0.0348333333333333,-0.152416666666667,-0.461428571428571,-0.233142857142857,-0.215285714285714,300.662666666667,-0.92674,0.28742,-0.3578,0.305555555555556,0.109111111111111,0.881111111111111,45.845,0.953066666666667,-0.174866666666667,0.0925,-0.538714285714286,-0.525714285714286,-0.283428571428571,1.703,0.788766666666667,-0.619633333333333,-0.0606166666666667,-11.0246,0.6466,2.183,492.204666666667,1,1,1,1
24-May-2018 12:16:06,0,0.945083333333333,0.0348333333333333,-0.152416666666667,-0.461428571428571,-0.233142857142857,-0.215285714285714,300.662666666667,-0.92674,0.28742,-0.3578,0.305555555555556,0.109111111111111,0.881111111111111,45.845,0.953066666666667,-0.174866666666667,0.0925,-0.538714285714286,-0.525714285714286,-0.283428571428571,1.703,0.788766666666667,-0.619633333333333,-0.0606166666666667,-11.0246,0.6466,2.183,492.204666666667,1,1,1,1
24-May-2018 12:16:06,0,0.945083333333333,0.0348333333333333,-0.152416666666667,-0.461428571428571,-0.233142857142857,-0.215285714285714,300.662666666667,-0.92674,0.28742,-0.3578,0.305555555555556,0.109111111111111,0.881111111111111,45.845,0.953066666666667,-0.174866666666667,0.0925,-0.538714285714286,-0.525714285714286,-0.283428571428571,1.703,0.788766666666667,-0.619633333333333,-0.0606166666666667,-11.0246,0.6466,2.183,492.204666666667,1,1,1,1
24-May-2018 12:16:06,0,0.945083333333333,0.0348333333333333,-0.152416666666667,-0.461428571428571,-0.233142857142857,-0.215285714285714,300.662666666667,-0.92674,0.28742,-0.3578,0.305555555555556,0.109111111111111,0.881111111111111,45.845,0.953066666666667,-0.174866666666667,0.0925,-0.538714285714286,-0.525714285714286,-0.283428571428571,1.703,0.788766666666667,-0.619633333333333,-0.0606166666666667,-11.0246,0.6466,2.183,492.204666666667,1,1,1,1
24-May-2018 12:16:07,0,0.945742857142857,0.0402285714285714,-0.152642857142857,0.622,0.163166666666667,0.742,298.646,-0.9268,0.28855,-0.3563,-0.1932,-1.0831,0.4516,45.845,0.950428571428572,-0.190328571428571,0.0990714285714286,0.499285714285714,-0.860428571428571,1.089,1.6795,0.575725,-0.6158,-0.451,75.6201666666667,-23.6681666666667,-47.8353333333333,360.928,1,1,1,1
24-May-2018 12:16:07,0,0.945742857142857,0.0402285714285714,-0.152642857142857,0.622,0.163166666666667,0.742,298.646,-0.9268,0.28855,-0.3563,-0.1932,-1.0831,0.4516,45.845,0.950428571428572,-0.190328571428571,0.0990714285714286,0.499285714285714,-0.860428571428571,1.089,1.6795,0.575725,-0.6158,-0.451,75.6201666666667,-23.6681666666667,-47.8353333333333,360.928,1,1,1,1
24-May-2018 12:16:07,0,0.945742857142857,0.0402285714285714,-0.152642857142857,0.622,0.163166666666667,0.742,298.646,-0.9268,0.28855,-0.3563,-0.1932,-1.0831,0.4516,45.845,0.950428571428572,-0.190328571428571,0.0990714285714286,0.499285714285714,-0.860428571428571,1.089,1.6795,0.575725,-0.6158,-0.451,75.6201666666667,-23.6681666666667,-47.8353333333333,360.928,1,1,1,1
24-May-2018 12:16:07,0,0.945742857142857,0.0402285714285714,-0.152642857142857,0.622,0.163166666666667,0.742,298.646,-0.9268,0.28855,-0.3563,-0.1932,-1.0831,0.4516,45.845,0.950428571428572,-0.190328571428571,0.0990714285714286,0.499285714285714,-0.860428571428571,1.089,1.6795,0.575725,-0.6158,-0.451,75.6201666666667,-23.6681666666667,-47.8353333333333,360.928,1,1,1,1
24-May-2018 12:16:08,0,0.951225,0.02005,-0.106475,3.795,4.805,-0.193,300.677,-0.92856,0.28958,-0.35478,-1.507,0.139125,-0.125375,45.14375,0.951575,-0.198525,0.083775,-1.3695,-3.595,-1.46,1.647,0.827933333333333,-0.0442,0.445466666666667,38.1832,-8.5488,-40.756,601.617,1,1,1,1
24-May-2018 12:16:08,0,0.951225,0.02005,-0.106475,3.795,4.805,-0.193,300.677,-0.92856,0.28958,-0.35478,-1.507,0.139125,-0.125375,45.14375,0.951575,-0.198525,0.083775,-1.3695,-3.595,-1.46,1.647,0.827933333333333,-0.0442,0.445466666666667,38.1832,-8.5488,-40.756,601.617,1,1,1,1
24-May-2018 12:16:08,0,0.951225,0.02005,-0.106475,3.795,4.805,-0.193,300.677,-0.92856,0.28958,-0.35478,-1.507,0.139125,-0.125375,45.14375,0.951575,-0.198525,0.083775,-1.3695,-3.595,-1.46,1.647,0.827933333333333,-0.0442,0.445466666666667,38.1832,-8.5488,-40.756,601.617,1,1,1,1
24-May-2018 12:16:08,0,0.951225,0.02005,-0.106475,3.795,4.805,-0.193,300.677,-0.92856,0.28958,-0.35478,-1.507,0.139125,-0.125375,45.14375,0.951575,-0.198525,0.083775,-1.3695,-3.595,-1.46,1.647,0.827933333333333,-0.0442,0.445466666666667,38.1832,-8.5488,-40.756,601.617,1,1,1,1
24-May-2018 12:16:09,0,0.951322222222222,0.0239444444444444,-0.111166666666667,0.0623333333333332,-1.33155555555556,0.414333333333333,300.677,-0.9298,0.2919,-0.354275,-0.350555555555556,-0.0186666666666667,0.413444444444445,44.91,0.951085714285714,-0.184585714285714,0.0871285714285714,-1.13014285714286,-0.171,-0.625285714285714,1.62,0.7174,0.248,0.688166666666667,-14.4337142857143,9.07671428571429,-6.84671428571429,630.35175,1,1,1,1
24-May-2018 12:16:09,0,0.951322222222222,0.0239444444444444,-0.111166666666667,0.0623333333333332,-1.33155555555556,0.414333333333333,300.677,-0.9298,0.2919,-0.354275,-0.350555555555556,-0.0186666666666667,0.413444444444445,44.91,0.951085714285714,-0.184585714285714,0.0871285714285714,-1.13014285714286,-0.171,-0.625285714285714,1.62,0.7174,0.248,0.688166666666667,-14.4337142857143,9.07671428571429,-6.84671428571429,630.35175,1,1,1,1
24-May-2018 12:16:09,0,0.951322222222222,0.0239444444444444,-0.111166666666667,0.0623333333333332,-1.33155555555556,0.414333333333333,300.677,-0.9298,0.2919,-0.354275,-0.350555555555556,-0.0186666666666667,0.413444444444445,44.91,0.951085714285714,-0.184585714285714,0.0871285714285714,-1.13014285714286,-0.171,-0.625285714285714,1.62,0.7174,0.248,0.688166666666667,-14.4337142857143,9.07671428571429,-6.84671428571429,630.35175,1,1,1,1
24-May-2018 12:16:09,0,0.951322222222222,0.0239444444444444,-0.111166666666667,0.0623333333333332,-1.33155555555556,0.414333333333333,300.677,-0.9298,0.2919,-0.354275,-0.350555555555556,-0.0186666666666667,0.413444444444445,44.91,0.951085714285714,-0.184585714285714,0.0871285714285714,-1.13014285714286,-0.171,-0.625285714285714,1.62,0.7174,0.248,0.688166666666667,-14.4337142857143,9.07671428571429,-6.84671428571429,630.35175,1,1,1,1
24-May-2018 12:16:10,0,0.95054,0.02695,-0.11638,1.29183333333333,0.955166666666667,0.284833333333333,300.677,-0.93272,0.29342,-0.35244,3.2989,1.1612,-1.2219,44.91,0.951542857142857,-0.1886,0.092,-0.2,-0.364666666666667,-0.0898333333333333,1.6555,0.738966666666667,0.228433333333333,0.688616666666667,22.3292,-4.951,13.317,630.35175,1,1,1,1
24-May-2018 12:16:10,0,0.95054,0.02695,-0.11638,1.29183333333333,0.955166666666667,0.284833333333333,300.677,-0.93272,0.29342,-0.35244,3.2989,1.1612,-1.2219,44.91,0.951542857142857,-0.1886,0.092,-0.2,-0.364666666666667,-0.0898333333333333,1.6555,0.738966666666667,0.228433333333333,0.688616666666667,22.3292,-4.951,13.317,630.35175,1,1,1,1
24-May-2018 12:16:10,0,0.95054,0.02695,-0.11638,1.29183333333333,0.955166666666667,0.284833333333333,300.677,-0.93272,0.29342,-0.35244,3.2989,1.1612,-1.2219,44.91,0.951542857142857,-0.1886,0.092,-0.2,-0.364666666666667,-0.0898333333333333,1.6555,0.738966666666667,0.228433333333333,0.688616666666667,22.3292,-4.951,13.317,630.35175,1,1,1,1
24-May-2018 12:16:10,0,0.95054,0.02695,-0.11638,1.29183333333333,0.955166666666667,0.284833333333333,300.677,-0.93272,0.29342,-0.35244,3.2989,1.1612,-1.2219,44.91,0.951542857142857,-0.1886,0.092,-0.2,-0.364666666666667,-0.0898333333333333,1.6555,0.738966666666667,0.228433333333333,0.688616666666667,22.3292,-4.951,13.317,0,1,1,1,1
24-May-2018 12:16:11,0,0.9514,0.0253333333333333,-0.0973,1.465,1.3415,0.25925,300.677,-0.962075,0.278925,-0.371825,25.7944444444444,0.130888888888889,9.82388888888889,44.176,0.952,-0.181814285714286,0.101657142857143,-4.69166666666667,0.6925,-0.95,1.564,0.779583333333333,0.236383333333333,0.63015,-13.9285714285714,6.04542857142857,-9.37271428571428,619.061,1,1,1,1
24-May-2018 12:16:11,0,0.9514,0.0253333333333333,-0.0973,1.465,1.3415,0.25925,300.677,-0.962075,0.278925,-0.371825,25.7944444444444,0.130888888888889,9.82388888888889,44.176,0.952,-0.181814285714286,0.101657142857143,-4.69166666666667,0.6925,-0.95,1.564,0.779583333333333,0.236383333333333,0.63015,-13.9285714285714,6.04542857142857,-9.37271428571428,619.061,1,1,1,1
24-May-2018 12:16:11,0,0.9514,0.0253333333333333,-0.0973,1.465,1.3415,0.25925,300.677,-0.962075,0.278925,-0.371825,25.7944444444444,0.130888888888889,9.82388888888889,44.176,0.952,-0.181814285714286,0.101657142857143,-4.69166666666667,0.6925,-0.95,1.564,0.779583333333333,0.236383333333333,0.63015,-13.9285714285714,6.04542857142857,-9.37271428571428,619.061,1,1,1,1
24-May-2018 12:16:11,0,0.9514,0.0253333333333333,-0.0973,1.465,1.3415,0.25925,300.677,-0.962075,0.278925,-0.371825,25.7944444444444,0.130888888888889,9.82388888888889,44.176,0.952,-0.181814285714286,0.101657142857143,-4.69166666666667,0.6925,-0.95,1.564,0.779583333333333,0.236383333333333,0.63015,-13.9285714285714,6.04542857142857,-9.37271428571428,619.061,1,1,1,1
24-May-2018 12:16:12,0,0.954333333333333,0.03195,-0.0968666666666667,-5.77833333333333,-0.24,0.0921666666666667,325.826,-0.89435,0.3515,-0.377525,29.6928571428571,20.1028571428571,68.8557142857143,44.176,0.952516666666667,-0.175166666666667,0.120016666666667,-0.779,0.184333333333333,-0.515,1.6386,0.771775,0.2179375,0.6490875,-2.53485714285714,-3.71957142857143,-1.86414285714286,702.914,1,1,1,1
24-May-2018 12:16:12,0,0.954333333333333,0.03195,-0.0968666666666667,-5.77833333333333,-0.24,0.0921666666666667,325.826,-0.89435,0.3515,-0.377525,29.6928571428571,20.1028571428571,68.8557142857143,44.176,0.952516666666667,-0.175166666666667,0.120016666666667,-0.779,0.184333333333333,-0.515,1.6386,0.771775,0.2179375,0.6490875,-2.53485714285714,-3.71957142857143,-1.86414285714286,702.914,1,1,1,1
24-May-2018 12:16:12,0,0.954333333333333,0.03195,-0.0968666666666667,-5.77833333333333,-0.24,0.0921666666666667,325.826,-0.89435,0.3515,-0.377525,29.6928571428571,20.1028571428571,68.8557142857143,44.176,0.952516666666667,-0.175166666666667,0.120016666666667,-0.779,0.184333333333333,-0.515,1.6386,0.771775,0.2179375,0.6490875,-2.53485714285714,-3.71957142857143,-1.86414285714286,702.914,1,1,1,1
24-May-2018 12:16:12,0,0.954333333333333,0.03195,-0.0968666666666667,-5.77833333333333,-0.24,0.0921666666666667,325.826,-0.89435,0.3515,-0.377525,29.6928571428571,20.1028571428571,68.8557142857143,44.176,0.952516666666667,-0.175166666666667,0.120016666666667,-0.779,0.184333333333333,-0.515,1.6386,0.771775,0.2179375,0.6490875,-2.53485714285714,-3.71957142857143,-1.86414285714286,702.914,1,1,1,1
24-May-2018 12:16:13,0,0.951725,0.0455,-0.111825,0.101833333333333,-0.191166666666667,0.387333333333333,321.144,-0.77,0.47208,-0.5001,15.4331111111111,34.6785555555556,50.3954444444445,49.1406666666667,0.95145,-0.173925,0.13095,0.662285714285714,-1.04142857142857,-0.102857142857143,1.649,0.7759,0.18398,0.65262,-1.25,3.65866666666667,-0.568833333333333,715.2925,1,1,1,1
24-May-2018 12:16:13,0,0.951725,0.0455,-0.111825,0.101833333333333,-0.191166666666667,0.387333333333333,321.144,-0.77,0.47208,-0.5001,15.4331111111111,34.6785555555556,50.3954444444445,49.1406666666667,0.95145,-0.173925,0.13095,0.662285714285714,-1.04142857142857,-0.102857142857143,1.649,0.7759,0.18398,0.65262,-1.25,3.65866666666667,-0.568833333333333,715.2925,1,1,1,1
24-May-2018 12:16:13,0,0.951725,0.0455,-0.111825,0.101833333333333,-0.191166666666667,0.387333333333333,321.144,-0.77,0.47208,-0.5001,15.4331111111111,34.6785555555556,50.3954444444445,49.1406666666667,0.95145,-0.173925,0.13095,0.662285714285714,-1.04142857142857,-0.102857142857143,1.649,0.7759,0.18398,0.65262,-1.25,3.65866666666667,-0.568833333333333,715.2925,1,1,1,1
24-May-2018 12:16:13,0,0.951725,0.0455,-0.111825,0.101833333333333,-0.191166666666667,0.387333333333333,321.144,-0.77,0.47208,-0.5001,15.4331111111111,34.6785555555556,50.3954444444445,49.1406666666667,0.95145,-0.173925,0.13095,0.662285714285714,-1.04142857142857,-0.102857142857143,1.649,0.7759,0.18398,0.65262,-1.25,3.65866666666667,-0.568833333333333,715.2925,1,1,1,1
24-May-2018 12:16:14,0,0.950416666666667,0.0464666666666667,-0.1135,2.0732,-0.4498,0.4026,316.402333333333,-0.7144,0.509966666666667,-0.554,28.74,5.756,12.136,59.07,0.95284,-0.17486,0.12418,-0.8475,-1.8075,-0.45,1.66625,0.75996,0.17636,0.66982,-1.2562,-0.4878,0.3536,759.344,1,1,1,1
24-May-2018 12:16:14,0,0.950416666666667,0.0464666666666667,-0.1135,2.0732,-0.4498,0.4026,316.402333333333,-0.7144,0.509966666666667,-0.554,28.74,5.756,12.136,59.07,0.95284,-0.17486,0.12418,-0.8475,-1.8075,-0.45,1.66625,0.75996,0.17636,0.66982,-1.2562,-0.4878,0.3536,759.344,1,1,1,1
24-May-2018 12:16:14,0,0.950416666666667,0.0464666666666667,-0.1135,2.0732,-0.4498,0.4026,316.402333333333,-0.7144,0.509966666666667,-0.554,28.74,5.756,12.136,59.07,0.95284,-0.17486,0.12418,-0.8475,-1.8075,-0.45,1.66625,0.75996,0.17636,0.66982,-1.2562,-0.4878,0.3536,759.344,1,1,1,1
24-May-2018 12:16:14,0,0.950416666666667,0.0464666666666667,-0.1135,2.0732,-0.4498,0.4026,316.402333333333,-0.7144,0.509966666666667,-0.554,28.74,5.756,12.136,59.07,0.95284,-0.17486,0.12418,-0.8475,-1.8075,-0.45,1.66625,0.75996,0.17636,0.66982,-1.2562,-0.4878,0.3536,759.344,1,1,1,1
24-May-2018 12:16:15,0,0.94864,0.047,-0.12532,0.1435,-0.545,0.315166666666667,311.997666666667,-0.72372,0.5266,-0.57546,22.854,-12.29125,14.752,59.07,0.954775,-0.170225,0.113175,-0.778,-1.338,-0.58,1.65725,0.77434,0.15832,0.66766,2.71325,-1.34125,0.64025,757.12,1,1,1,1
24-May-2018 12:16:15,0,0.94864,0.047,-0.12532,0.1435,-0.545,0.315166666666667,311.997666666667,-0.72372,0.5266,-0.57546,22.854,-12.29125,14.752,59.07,0.954775,-0.170225,0.113175,-0.778,-1.338,-0.58,1.65725,0.77434,0.15832,0.66766,2.71325,-1.34125,0.64025,757.12,1,1,1,1
24-May-2018 12:16:15,0,0.94864,0.047,-0.12532,0.1435,-0.545,0.315166666666667,311.997666666667,-0.72372,0.5266,-0.57546,22.854,-12.29125,14.752,59.07,0.954775,-0.170225,0.113175,-0.778,-1.338,-0.58,1.65725,0.77434,0.15832,0.66766,2.71325,-1.34125,0.64025,757.12,1,1,1,1
24-May-2018 12:16:15,0,0.94864,0.047,-0.12532,0.1435,-0.545,0.315166666666667,311.997666666667,-0.72372,0.5266,-0.57546,22.854,-12.29125,14.752,59.07,0.954775,-0.170225,0.113175,-0.778,-1.338,-0.58,1.65725,0.77434,0.15832,0.66766,2.71325,-1.34125,0.64025,757.12,1,1,1,1
24-May-2018 12:16:16,0,0.946157142857143,0.0473714285714286,-0.139871428571429,0.16175,-0.050625,0.488,302.724666666667,-0.72966,0.47786,-0.55818,2.6956,-7.4212,6.791,80.0053333333333,0.954216666666667,-0.167066666666667,0.111733333333333,-0.514333333333333,-0.798333333333333,-0.31,1.611,0.7507,0.128285714285714,0.717957142857143,-3.14016666666667,2.825,-1.46333333333333,754.998,1,1,1,1
24-May-2018 12:16:16,0,0.946157142857143,0.0473714285714286,-0.139871428571429,0.16175,-0.050625,0.488,302.724666666667,-0.72966,0.47786,-0.55818,2.6956,-7.4212,6.791,80.0053333333333,0.954216666666667,-0.167066666666667,0.111733333333333,-0.514333333333333,-0.798333333333333,-0.31,1.611,0.7507,0.128285714285714,0.717957142857143,-3.14016666666667,2.825,-1.46333333333333,754.998,1,1,1,1
24-May-2018 12:16:16,0,0.946157142857143,0.0473714285714286,-0.139871428571429,0.16175,-0.050625,0.488,302.724666666667,-0.72966,0.47786,-0.55818,2.6956,-7.4212,6.791,80.0053333333333,0.954216666666667,-0.167066666666667,0.111733333333333,-0.514333333333333,-0.798333333333333,-0.31,1.611,0.7507,0.128285714285714,0.717957142857143,-3.14016666666667,2.825,-1.46333333333333,754.998,1,1,1,1
24-May-2018 12:16:16,0,0.946157142857143,0.0473714285714286,-0.139871428571429,0.16175,-0.050625,0.488,302.724666666667,-0.72966,0.47786,-0.55818,2.6956,-7.4212,6.791,80.0053333333333,0.954216666666667,-0.167066666666667,0.111733333333333,-0.514333333333333,-0.798333333333333,-0.31,1.611,0.7507,0.128285714285714,0.717957142857143,-3.14016666666667,2.825,-1.46333333333333,754.998,1,1,1,1
24-May-2018 12:16:17,0,0.9477875,0.0484,-0.1357125,0.853833333333333,0.61,0.305,302.609,-0.73002,0.49618,-0.57964,-0.88925,6.675125,-8.88625,90.473,0.953557142857143,-0.169614285714286,0.120271428571429,-0.351666666666667,-0.444166666666667,-0.0996666666666667,1.6074,0.75288,0.14328,0.69546,5.5608,-5.061,1.2926,798.1915,1,1,1,1
24-May-2018 12:16:17,0,0.9477875,0.0484,-0.1357125,0.853833333333333,0.61,0.305,302.609,-0.73002,0.49618,-0.57964,-0.88925,6.675125,-8.88625,90.473,0.953557142857143,-0.169614285714286,0.120271428571429,-0.351666666666667,-0.444166666666667,-0.0996666666666667,1.6074,0.75288,0.14328,0.69546,5.5608,-5.061,1.2926,798.1915,1,1,1,1
24-May-2018 12:16:17,0,0.9477875,0.0484,-0.1357125,0.853833333333333,0.61,0.305,302.609,-0.73002,0.49618,-0.57964,-0.88925,6.675125,-8.88625,90.473,0.953557142857143,-0.169614285714286,0.120271428571429,-0.351666666666667,-0.444166666666667,-0.0996666666666667,1.6074,0.75288,0.14328,0.69546,5.5608,-5.061,1.2926,798.1915,1,1,1,1
24-May-2018 12:16:17,0,0.9477875,0.0484,-0.1357125,0.853833333333333,0.61,0.305,302.609,-0.73002,0.49618,-0.57964,-0.88925,6.675125,-8.88625,90.473,0.953557142857143,-0.169614285714286,0.120271428571429,-0.351666666666667,-0.444166666666667,-0.0996666666666667,1.6074,0.75288,0.14328,0.69546,5.5608,-5.061,1.2926,798.1915,1,1,1,1
24-May-2018 12:16:18,0,0.949185714285714,0.0451571428571429,-0.128585714285714,1.13625,0.267625,0.57175,304.549,-0.73575,0.47535,-0.5716,-8.04,11.06175,-4.1575,90.473,0.953166666666667,-0.171783333333333,0.124483333333333,-0.16,-0.96,-0.22,1.6855,0.795542857142857,0.177671428571429,0.642742857142857,5.819,2.71771428571429,2.44771428571429,771.8845,1,1,1,1
24-May-2018 12:16:18,0,0.949185714285714,0.0451571428571429,-0.128585714285714,1.13625,0.267625,0.57175,304.549,-0.73575,0.47535,-0.5716,-8.04,11.06175,-4.1575,90.473,0.953166666666667,-0.171783333333333,0.124483333333333,-0.16,-0.96,-0.22,1.6855,0.795542857142857,0.177671428571429,0.642742857142857,5.819,2.71771428571429,2.44771428571429,771.8845,1,1,1,1
24-May-2018 12:16:18,0,0.949185714285714,0.0451571428571429,-0.128585714285714,1.13625,0.267625,0.57175,304.549,-0.73575,0.47535,-0.5716,-8.04,11.06175,-4.1575,90.473,0.953166666666667,-0.171783333333333,0.124483333333333,-0.16,-0.96,-0.22,1.6855,0.795542857142857,0.177671428571429,0.642742857142857,5.819,2.71771428571429,2.44771428571429,771.8845,1,1,1,1
24-May-2018 12:16:18,0,0.949185714285714,0.0451571428571429,-0.128585714285714,1.13625,0.267625,0.57175,304.549,-0.73575,0.47535,-0.5716,-8.04,11.06175,-4.1575,90.473,0.953166666666667,-0.171783333333333,0.124483333333333,-0.16,-0.96,-0.22,1.6855,0.795542857142857,0.177671428571429,0.642742857142857,5.819,2.71771428571429,2.44771428571429,771.8845,1,1,1,1
24-May-2018 12:16:19,0,0.9496375,0.0329875,-0.1147625,3.87533333333333,1.00344444444444,0.508666666666667,304.549,-0.7199,0.48192,-0.57504,-15.0444444444444,6.04333333333333,-15.2644444444444,99.622,0.95194,-0.17552,0.1175,1.172,-1.944,0.3418,1.6646,0.79226,0.18338,0.6313,-10.10675,-4.5275,-2.546,683.867333333333,1,1,1,1
24-May-2018 12:16:19,0,0.9496375,0.0329875,-0.1147625,3.87533333333333,1.00344444444444,0.508666666666667,304.549,-0.7199,0.48192,-0.57504,-15.0444444444444,6.04333333333333,-15.2644444444444,99.622,0.95194,-0.17552,0.1175,1.172,-1.944,0.3418,1.6646,0.79226,0.18338,0.6313,-10.10675,-4.5275,-2.546,683.867333333333,1,1,1,1
24-May-2018 12:16:19,0,0.9496375,0.0329875,-0.1147625,3.87533333333333,1.00344444444444,0.508666666666667,304.549,-0.7199,0.48192,-0.57504,-15.0444444444444,6.04333333333333,-15.2644444444444,99.622,0.95194,-0.17552,0.1175,1.172,-1.944,0.3418,1.6646,0.79226,0.18338,0.6313,-10.10675,-4.5275,-2.546,683.867333333333,1,1,1,1
24-May-2018 12:16:19,0,0.9496375,0.0329875,-0.1147625,3.87533333333333,1.00344444444444,0.508666666666667,304.549,-0.7199,0.48192,-0.57504,-15.0444444444444,6.04333333333333,-15.2644444444444,99.622,0.95194,-0.17552,0.1175,1.172,-1.944,0.3418,1.6646,0.79226,0.18338,0.6313,-10.10675,-4.5275,-2.546,683.867333333333,1,1,1,1
24-May-2018 12:16:20,0,0.9521625,0.0326125,-0.1075625,-0.521,0.206625,0.084875,304.549,-0.740125,0.4336,-0.591425,-14.8633333333333,12.3466666666667,-37.7666666666667,99.622,0.953571428571429,-0.179942857142857,0.107457142857143,-0.0391428571428571,-0.589857142857143,-0.196428571428571,1.5975,0.8042,0.1341,0.633425,-0.4065,0.8535,-1.98166666666667,798.525,1,1,1,1
24-May-2018 12:16:20,0,0.9521625,0.0326125,-0.1075625,-0.521,0.206625,0.084875,304.549,-0.740125,0.4336,-0.591425,-14.8633333333333,12.3466666666667,-37.7666666666667,99.622,0.953571428571429,-0.179942857142857,0.107457142857143,-0.0391428571428571,-0.589857142857143,-0.196428571428571,1.5975,0.8042,0.1341,0.633425,-0.4065,0.8535,-1.98166666666667,798.525,1,1,1,1
24-May-2018 12:16:20,0,0.9521625,0.0326125,-0.1075625,-0.521,0.206625,0.084875,0,-0.740125,0.4336,-0.591425,-14.8633333333333,12.3466666666667,-37.7666666666667,99.622,0.953571428571429,-0.179942857142857,0.107457142857143,-0.0391428571428571,-0.589857142857143,-0.196428571428571,1.5975,0.8042,0.1341,0.633425,-0.4065,0.8535,-1.98166666666667,798.525,1,1,1,1
24-May-2018 12:16:20,0,0.9521625,0.0326125,-0.1075625,-0.521,0.206625,0.084875,0,-0.740125,0.4336,-0.591425,-14.8633333333333,12.3466666666667,-37.7666666666667,99.622,0.953571428571429,-0.179942857142857,0.107457142857143,-0.0391428571428571,-0.589857142857143,-0.196428571428571,1.5975,0.8042,0.1341,0.633425,-0.4065,0.8535,-1.98166666666667,798.525,1,1,1,1
24-May-2018 12:16:21,0,0.9515125,0.035525,-0.1142625,0.325333333333333,-0.616666666666667,0.305,311.85,-0.7856,0.388625,-0.630725,-18.5122222222222,23.6275555555556,-47.1777777777778,99.622,0.951428571428571,-0.180128571428571,0.1191,-0.6975,-1.2425,-0.315,1.611,0.81086,0.14186,0.62296,4.02466666666667,-0.203,-0.234,787.4345,1,1,1,1
24-May-2018 12:16:21,0,0.9515125,0.035525,-0.1142625,0.325333333333333,-0.616666666666667,0.305,311.85,-0.7856,0.388625,-0.630725,-18.5122222222222,23.6275555555556,-47.1777777777778,99.622,0.951428571428571,-0.180128571428571,0.1191,-0.6975,-1.2425,-0.315,1.611,0.81086,0.14186,0.62296,4.02466666666667,-0.203,-0.234,787.4345,1,1,1,1
24-May-2018 12:16:21,0,0.9515125,0.035525,-0.1142625,0.325333333333333,-0.616666666666667,0.305,311.85,-0.7856,0.388625,-0.630725,-18.5122222222222,23.6275555555556,-47.1777777777778,99.622,0.951428571428571,-0.180128571428571,0.1191,-0.6975,-1.2425,-0.315,1.611,0.81086,0.14186,0.62296,4.02466666666667,-0.203,-0.234,787.4345,1,1,1,1
24-May-2018 12:16:21,0,0.9515125,0.035525,-0.1142625,0.325333333333333,-0.616666666666667,0.305,311.85,-0.7856,0.388625,-0.630725,-18.5122222222222,23.6275555555556,-47.1777777777778,99.622,0.951428571428571,-0.180128571428571,0.1191,-0.6975,-1.2425,-0.315,1.611,0.81086,0.14186,0.62296,4.02466666666667,-0.203,-0.234,787.4345,1,1,1,1
24-May-2018 12:16:22,0,0.948375,0.05175,-0.136,-5.01025,-2.145,0.67075,306.947142857143,-0.75444,0.28056,-0.61626,-8.72811111111111,13.2442222222222,-45.9333333333333,105.267,0.9539,-0.174833333333333,0.105,-1.42714285714286,-0.277285714285714,-0.682857142857143,1.602,0.79844,0.21782,0.61512,8.20125,1.074625,7.54575,787.4345,1,1,1,1
24-May-2018 12:16:22,0,0.948375,0.05175,-0.136,-5.01025,-2.145,0.67075,306.947142857143,-0.75444,0.28056,-0.61626,-8.72811111111111,13.2442222222222,-45.9333333333333,105.267,0.9539,-0.174833333333333,0.105,-1.42714285714286,-0.277285714285714,-0.682857142857143,1.602,0.79844,0.21782,0.61512,8.20125,1.074625,7.54575,787.4345,1,1,1,1
24-May-2018 12:16:22,0,0.948375,0.05175,-0.136,-5.01025,-2.145,0.67075,306.947142857143,-0.75444,0.28056,-0.61626,-8.72811111111111,13.2442222222222,-45.9333333333333,105.267,0.9539,-0.174833333333333,0.105,-1.42714285714286,-0.277285714285714,-0.682857142857143,1.602,0.79844,0.21782,0.61512,8.20125,1.074625,7.54575,787.4345,1,1,1,1
24-May-2018 12:16:22,0,0.948375,0.05175,-0.136,-5.01025,-2.145,0.67075,306.947142857143,-0.75444,0.28056,-0.61626,-8.72811111111111,13.2442222222222,-45.9333333333333,105.267,0.9539,-0.174833333333333,0.105,-1.42714285714286,-0.277285714285714,-0.682857142857143,1.602,0.79844,0.21782,0.61512,8.20125,1.074625,7.54575,0,1,1,1,1
24-May-2018 12:16:23,0,0.946983333333333,0.0561333333333333,-0.1159,-13.966,5.5612,1.7806,291.66,-0.86602,0.1831,-0.5938,4.63633333333333,-27.4818888888889,-19.6433333333333,105.267,0.9527,-0.1657,0.1555875,-21.7318,5.6458,-2.252,1.7214,0.839125,-0.247025,0.296775,-19.8766,-42.743,-5.3416,729.05675,1,1,1,1
24-May-2018 12:16:23,0,0.946983333333333,0.0561333333333333,-0.1159,-13.966,5.5612,1.7806,291.66,-0.86602,0.1831,-0.5938,4.63633333333333,-27.4818888888889,-19.6433333333333,105.267,0.9527,-0.1657,0.1555875,-21.7318,5.6458,-2.252,1.7214,0.839125,-0.247025,0.296775,-19.8766,-42.743,-5.3416,729.05675,1,1,1,1
24-May-2018 12:16:23,0,0.946983333333333,0.0561333333333333,-0.1159,-13.966,5.5612,1.7806,291.66,-0.86602,0.1831,-0.5938,4.63633333333333,-27.4818888888889,-19.6433333333333,105.267,0.9527,-0.1657,0.1555875,-21.7318,5.6458,-2.252,1.7214,0.839125,-0.247025,0.296775,-19.8766,-42.743,-5.3416,729.05675,1,1,1,1
24-May-2018 12:16:23,0,0.946983333333333,0.0561333333333333,-0.1159,-13.966,5.5612,1.7806,291.66,-0.86602,0.1831,-0.5938,4.63633333333333,-27.4818888888889,-19.6433333333333,105.267,0.9527,-0.1657,0.1555875,-21.7318,5.6458,-2.252,1.7214,0.839125,-0.247025,0.296775,-19.8766,-42.743,-5.3416,729.05675,1,1,1,1
24-May-2018 12:16:24,0,0.9536,0.0529833333333333,-0.0615166666666667,27.2776,-0.1918,1.8658,326.507,-0.8768,0.1721,-0.492075,9.56625,-7.815,23.79875,105.267,0.951575,-0.191225,0.0611875,18.037,-11.8457142857143,2.858,1.875,1.0184,-0.04716,-0.00116,24.807,16.311,-32.1343333333333,556.311,1,1,1,1
24-May-2018 12:16:24,0,0.9536,0.0529833333333333,-0.0615166666666667,27.2776,-0.1918,1.8658,326.507,-0.8768,0.1721,-0.492075,9.56625,-7.815,23.79875,105.267,0.951575,-0.191225,0.0611875,18.037,-11.8457142857143,2.858,1.875,1.0184,-0.04716,-0.00116,24.807,16.311,-32.1343333333333,556.311,1,1,1,1
24-May-2018 12:16:24,0,0.9536,0.0529833333333333,-0.0615166666666667,27.2776,-0.1918,1.8658,326.507,-0.8768,0.1721,-0.492075,9.56625,-7.815,23.79875,105.267,0.951575,-0.191225,0.0611875,18.037,-11.8457142857143,2.858,1.875,1.0184,-0.04716,-0.00116,24.807,16.311,-32.1343333333333,556.311,1,1,1,1
24-May-2018 12:16:24,0,0.9536,0.0529833333333333,-0.0615166666666667,27.2776,-0.1918,1.8658,326.507,-0.8768,0.1721,-0.492075,9.56625,-7.815,23.79875,105.267,0.951575,-0.191225,0.0611875,18.037,-11.8457142857143,2.858,1.875,1.0184,-0.04716,-0.00116,24.807,16.311,-32.1343333333333,556.311,1,1,1,1
24-May-2018 12:16:25,0,0.957366666666667,0.0181333333333333,-0.122566666666667,-3.9425,-5.265,0.1225,339.497,-0.9219,0.225033333333333,-0.481133333333333,-0.849875,-19.5675,8.763,49.524,0.951425,-0.1926,0.08415,-1.8026,2.9636,-1.956,1.44275,0.94795,-0.28735,0.24405,-72.418,32.3983333333333,7.86566666666667,625.251666666667,1,1,1,1
24-May-2018 12:16:25,0,0.957366666666667,0.0181333333333333,-0.122566666666667,-3.9425,-5.265,0.1225,339.497,-0.9219,0.225033333333333,-0.481133333333333,-0.849875,-19.5675,8.763,49.524,0.951425,-0.1926,0.08415,-1.8026,2.9636,-1.956,1.44275,0.94795,-0.28735,0.24405,-72.418,32.3983333333333,7.86566666666667,625.251666666667,1,1,1,1
24-May-2018 12:16:25,0,0.957366666666667,0.0181333333333333,-0.122566666666667,-3.9425,-5.265,0.1225,339.497,-0.9219,0.225033333333333,-0.481133333333333,-0.849875,-19.5675,8.763,49.524,0.951425,-0.1926,0.08415,-1.8026,2.9636,-1.956,1.44275,0.94795,-0.28735,0.24405,-72.418,32.3983333333333,7.86566666666667,625.251666666667,1,1,1,1
24-May-2018 12:16:25,0,0.957366666666667,0.0181333333333333,-0.122566666666667,-3.9425,-5.265,0.1225,339.497,-0.9219,0.225033333333333,-0.481133333333333,-0.849875,-19.5675,8.763,49.524,0.951425,-0.1926,0.08415,-1.8026,2.9636,-1.956,1.44275,0.94795,-0.28735,0.24405,-72.418,32.3983333333333,7.86566666666667,625.251666666667,1,1,1,1
24-May-2018 12:16:26,0,0.94805,0.0391,-0.129,-6.95,-4.57,0.183,323.013,-0.9331,0.2095,-0.4647,-0.849875,-19.5675,8.763,49.524,0.947366666666667,-0.191333333333333,0.157033333333333,-10.51,11.949,-1.735,1.593,0.9537,-0.28235,0.2645,13.943,-0.549,-8.12966666666667,745.444,1,1,1,1
24-May-2018 12:16:26,0,0.94805,0.0391,-0.129,-6.95,-4.57,0.183,323.013,-0.9331,0.2095,-0.4647,-0.849875,-19.5675,8.763,49.524,0.947366666666667,-0.191333333333333,0.157033333333333,-10.51,11.949,-1.735,1.593,0.9537,-0.28235,0.2645,13.943,-0.549,-8.12966666666667,745.444,1,1,1,1
24-May-2018 12:16:26,0,0.94805,0.0391,-0.129,-6.95,-4.57,0.183,323.013,-0.9331,0.2095,-0.4647,-0.849875,-19.5675,8.763,49.524,0.947366666666667,-0.191333333333333,0.157033333333333,-10.51,11.949,-1.735,1.593,0.9537,-0.28235,0.2645,13.943,-0.549,-8.12966666666667,745.444,1,1,1,1
24-May-2018 12:16:26,0,0.94805,0.0391,-0.129,-6.95,-4.57,0.183,323.013,-0.9331,0.2095,-0.4647,0,0,0,49.524,0.947366666666667,-0.191333333333333,0.157033333333333,-10.51,11.949,-1.735,1.593,0.9537,-0.28235,0.2645,13.943,-0.549,-8.12966666666667,745.444,1,1,1,1
24-May-2018 12:16:27,0,0.951057142857143,0.0382714285714286,-0.152914285714286,-1.15025,0.252625,0.214,293.385,-0.881375,0.255975,-0.464125,4.3208,6.9813,4.1652,49.524,0.955616666666667,-0.187866666666667,0.0910333333333333,6.4735,-1.996,-0.311166666666667,1.5814,0.919371428571429,-0.373571428571429,0.251114285714286,-19.916125,-3.559375,6.448125,859.544,1,1,1,1
24-May-2018 12:16:27,0,0.951057142857143,0.0382714285714286,-0.152914285714286,-1.15025,0.252625,0.214,293.385,-0.881375,0.255975,-0.464125,4.3208,6.9813,4.1652,49.524,0.955616666666667,-0.187866666666667,0.0910333333333333,6.4735,-1.996,-0.311166666666667,1.5814,0.919371428571429,-0.373571428571429,0.251114285714286,-19.916125,-3.559375,6.448125,859.544,1,1,1,1
24-May-2018 12:16:27,0,0.951057142857143,0.0382714285714286,-0.152914285714286,-1.15025,0.252625,0.214,293.385,-0.881375,0.255975,-0.464125,4.3208,6.9813,4.1652,49.524,0.955616666666667,-0.187866666666667,0.0910333333333333,6.4735,-1.996,-0.311166666666667,1.5814,0.919371428571429,-0.373571428571429,0.251114285714286,-19.916125,-3.559375,6.448125,859.544,1,1,1,1
24-May-2018 12:16:27,0,0.951057142857143,0.0382714285714286,-0.152914285714286,-1.15025,0.252625,0.214,293.385,-0.881375,0.255975,-0.464125,4.3208,6.9813,4.1652,49.524,0.955616666666667,-0.187866666666667,0.0910333333333333,6.4735,-1.996,-0.311166666666667,1.5814,0.919371428571429,-0.373571428571429,0.251114285714286,-19.916125,-3.559375,6.448125,859.544,1,1,1,1
24-May-2018 12:16:28,0,0.946928571428571,0.0278,-0.143271428571429,4.33771428571429,0.821857142857143,-0.171857142857143,297.913666666667,-0.86382,0.28604,-0.5018,-3.663375,5.7775,18.3195,49.524,0.950733333333333,-0.190033333333333,0.1059,-0.98575,-1.73475,-0.315,1.6014,0.83638,-0.60302,-0.10096,-43.742125,16.79875,7.103625,676.608,1,1,1,1
24-May-2018 12:16:28,0,0.946928571428571,0.0278,-0.143271428571429,4.33771428571429,0.821857142857143,-0.171857142857143,297.913666666667,-0.86382,0.28604,-0.5018,-3.663375,5.7775,18.3195,49.524,0.950733333333333,-0.190033333333333,0.1059,-0.98575,-1.73475,-0.315,1.6014,0.83638,-0.60302,-0.10096,-43.742125,16.79875,7.103625,676.608,1,1,1,1
24-May-2018 12:16:28,0,0.946928571428571,0.0278,-0.143271428571429,4.33771428571429,0.821857142857143,-0.171857142857143,297.913666666667,-0.86382,0.28604,-0.5018,-3.663375,5.7775,18.3195,49.524,0.950733333333333,-0.190033333333333,0.1059,-0.98575,-1.73475,-0.315,1.6014,0.83638,-0.60302,-0.10096,-43.742125,16.79875,7.103625,676.608,1,1,1,1
24-May-2018 12:16:28,0,0.946928571428571,0.0278,-0.143271428571429,4.33771428571429,0.821857142857143,-0.171857142857143,297.913666666667,-0.86382,0.28604,-0.5018,-3.663375,5.7775,18.3195,49.524,0.950733333333333,-0.190033333333333,0.1059,-0.98575,-1.73475,-0.315,1.6014,0.83638,-0.60302,-0.10096,-43.742125,16.79875,7.103625,676.608,1,1,1,1
24-May-2018 12:16:29,0,0.9486375,0.0279375,-0.1332125,-1.16444444444444,0.0827777777777778,0.386555555555556,297.913666666667,-0.846025,0.292225,-0.549875,-3.2575,-2.2119,0.497,44.888,0.95162,-0.18624,0.09794,-1.33814285714286,-0.172285714285714,-0.63,1.5876,0.851,-0.561085714285714,-0.204614285714286,-43.742125,2.939,0.6586,444.02,1,1,1,1
24-May-2018 12:16:29,0,0.9486375,0.0279375,-0.1332125,-1.16444444444444,0.0827777777777778,0.386555555555556,297.913666666667,-0.846025,0.292225,-0.549875,-3.2575,-2.2119,0.497,44.888,0.95162,-0.18624,0.09794,-1.33814285714286,-0.172285714285714,-0.63,1.5876,0.851,-0.561085714285714,-0.204614285714286,-43.742125,2.939,0.6586,444.02,1,1,1,1
24-May-2018 12:16:29,0,0.9486375,0.0279375,-0.1332125,-1.16444444444444,0.0827777777777778,0.386555555555556,297.913666666667,-0.846025,0.292225,-0.549875,-3.2575,-2.2119,0.497,44.888,0.95162,-0.18624,0.09794,-1.33814285714286,-0.172285714285714,-0.63,1.5876,0.851,-0.561085714285714,-0.204614285714286,-43.742125,2.939,0.6586,444.02,1,1,1,1
24-May-2018 12:16:29,0,0.9486375,0.0279375,-0.1332125,-1.16444444444444,0.0827777777777778,0.386555555555556,297.913666666667,-0.846025,0.292225,-0.549875,-3.2575,-2.2119,0.497,44.888,0.95162,-0.18624,0.09794,-1.33814285714286,-0.172285714285714,-0.63,1.5876,0.851,-0.561085714285714,-0.204614285714286,0,2.939,0.6586,444.02,1,1,1,1
24-May-2018 12:16:30,0,0.94721,0.02768,-0.14136,1.26575,-0.066625,0.252,297.913666666667,-0.87268,0.26442,-0.51362,4.53828571428571,-14.4014285714286,-9.29714285714286,44.888,0.9513,-0.188633333333333,0.0965,0.00137500000000002,-0.81,-0.134625,1.546,0.820371428571429,-0.571685714285714,-0.235085714285714,-17.3678333333333,4.30883333333333,4.85766666666667,380.626,1,1,1,1
24-May-2018 12:16:30,0,0.94721,0.02768,-0.14136,1.26575,-0.066625,0.252,297.913666666667,-0.87268,0.26442,-0.51362,4.53828571428571,-14.4014285714286,-9.29714285714286,44.888,0.9513,-0.188633333333333,0.0965,0.00137500000000002,-0.81,-0.134625,1.546,0.820371428571429,-0.571685714285714,-0.235085714285714,-17.3678333333333,4.30883333333333,4.85766666666667,380.626,1,1,1,1
24-May-2018 12:16:30,0,0.94721,0.02768,-0.14136,1.26575,-0.066625,0.252,297.913666666667,-0.87268,0.26442,-0.51362,4.53828571428571,-14.4014285714286,-9.29714285714286,44.888,0.9513,-0.188633333333333,0.0965,0.00137500000000002,-0.81,-0.134625,1.546,0.820371428571429,-0.571685714285714,-0.235085714285714,-17.3678333333333,4.30883333333333,4.85766666666667,380.626,1,1,1,1
24-May-2018 12:16:30,0,0.94721,0.02768,-0.14136,1.26575,-0.066625,0.252,297.913666666667,-0.87268,0.26442,-0.51362,4.53828571428571,-14.4014285714286,-9.29714285714286,44.888,0.9513,-0.188633333333333,0.0965,0.00137500000000002,-0.81,-0.134625,1.546,0.820371428571429,-0.571685714285714,-0.235085714285714,-17.3678333333333,4.30883333333333,4.85766666666667,380.626,1,1,1,1
24-May-2018 12:16:31,0,0.946671428571428,0.0258142857142857,-0.140471428571429,2.949625,0.404125,0.17625,297.913666666667,-0.86415,0.26205,-0.51505,-0.6558,3.3955,2.4774,45.535,0.949657142857143,-0.193385714285714,0.0915857142857143,0.671571428571428,-1.52,0.0442857142857143,1.544,0.805357142857143,-0.583042857142857,-0.264785714285714,20.8943333333333,-3.73977777777778,-4.34955555555556,355.223,1,1,1,1
24-May-2018 12:16:31,0,0.946671428571428,0.0258142857142857,-0.140471428571429,2.949625,0.404125,0.17625,297.913666666667,-0.86415,0.26205,-0.51505,-0.6558,3.3955,2.4774,45.535,0.949657142857143,-0.193385714285714,0.0915857142857143,0.671571428571428,-1.52,0.0442857142857143,1.544,0.805357142857143,-0.583042857142857,-0.264785714285714,20.8943333333333,-3.73977777777778,-4.34955555555556,355.223,1,1,1,1
24-May-2018 12:16:31,0,0.946671428571428,0.0258142857142857,-0.140471428571429,2.949625,0.404125,0.17625,297.913666666667,-0.86415,0.26205,-0.51505,-0.6558,3.3955,2.4774,45.535,0.949657142857143,-0.193385714285714,0.0915857142857143,0.671571428571428,-1.52,0.0442857142857143,1.544,0.805357142857143,-0.583042857142857,-0.264785714285714,20.8943333333333,-3.73977777777778,-4.34955555555556,355.223,1,1,1,1
24-May-2018 12:16:31,0,0.946671428571428,0.0258142857142857,-0.140471428571429,2.949625,0.404125,0.17625,297.913666666667,-0.86415,0.26205,-0.51505,-0.6558,3.3955,2.4774,45.535,0.949657142857143,-0.193385714285714,0.0915857142857143,0.671571428571428,-1.52,0.0442857142857143,1.544,0.805357142857143,-0.583042857142857,-0.264785714285714,20.8943333333333,-3.73977777777778,-4.34955555555556,355.223,1,1,1,1
24-May-2018 12:16:32,0,0.948785714285714,0.0227285714285714,-0.126371428571429,0.938625,1.28825,0.373625,311.76,-0.876575,0.28185,-0.47945,-5.10875,-1.124375,1.425125,45.939,0.95122,-0.195,0.09696,-2.985,0.0826666666666666,-0.0796666666666667,1.537,0.79522,-0.59886,-0.14866,4.6828,2.5732,1.305,451.311,1,1,1,1
24-May-2018 12:16:32,0,0.948785714285714,0.0227285714285714,-0.126371428571429,0.938625,1.28825,0.373625,311.76,-0.876575,0.28185,-0.47945,-5.10875,-1.124375,1.425125,45.939,0.95122,-0.195,0.09696,-2.985,0.0826666666666666,-0.0796666666666667,1.537,0.79522,-0.59886,-0.14866,4.6828,2.5732,1.305,451.311,1,1,1,1
24-May-2018 12:16:32,0,0.948785714285714,0.0227285714285714,-0.126371428571429,0.938625,1.28825,0.373625,311.76,-0.876575,0.28185,-0.47945,-5.10875,-1.124375,1.425125,45.939,0.95122,-0.195,0.09696,-2.985,0.0826666666666666,-0.0796666666666667,1.537,0.79522,-0.59886,-0.14866,4.6828,2.5732,1.305,451.311,1,1,1,1
24-May-2018 12:16:32,0,0.948785714285714,0.0227285714285714,-0.126371428571429,0.938625,1.28825,0.373625,311.76,-0.876575,0.28185,-0.47945,-5.10875,-1.124375,1.425125,45.939,0.95122,-0.195,0.09696,-2.985,0.0826666666666666,-0.0796666666666667,1.537,0.79522,-0.59886,-0.14866,4.6828,2.5732,1.305,451.311,1,1,1,1
24-May-2018 12:16:33,0,0.95515,0.0287166666666667,-0.0466333333333333,-1.56233333333333,3.31316666666667,-0.259833333333333,331.823,-0.8837,0.2887,-0.474625,-3.43375,1.952,-1.74875,47.151,0.947416666666667,-0.203283333333333,0.108583333333333,-1.52983333333333,-0.250833333333333,0.175333333333333,1.57875,0.7713,-0.634675,-0.0999,18.6586666666667,7.20516666666667,-16.3311666666667,533.2735,1,1,1,1
24-May-2018 12:16:33,0,0.95515,0.0287166666666667,-0.0466333333333333,-1.56233333333333,3.31316666666667,-0.259833333333333,331.823,-0.8837,0.2887,-0.474625,-3.43375,1.952,-1.74875,47.151,0.947416666666667,-0.203283333333333,0.108583333333333,-1.52983333333333,-0.250833333333333,0.175333333333333,1.57875,0.7713,-0.634675,-0.0999,18.6586666666667,7.20516666666667,-16.3311666666667,533.2735,1,1,1,1
24-May-2018 12:16:33,0,0.95515,0.0287166666666667,-0.0466333333333333,-1.56233333333333,3.31316666666667,-0.259833333333333,331.823,-0.8837,0.2887,-0.474625,-3.43375,1.952,-1.74875,47.151,0.947416666666667,-0.203283333333333,0.108583333333333,-1.52983333333333,-0.250833333333333,0.175333333333333,1.57875,0.7713,-0.634675,-0.0999,18.6586666666667,7.20516666666667,-16.3311666666667,533.2735,1,1,1,1
24-May-2018 12:16:33,0,0.95515,0.0287166666666667,-0.0466333333333333,-1.56233333333333,3.31316666666667,-0.259833333333333,331.823,-0.8837,0.2887,-0.474625,-3.43375,1.952,-1.74875,47.151,0.947416666666667,-0.203283333333333,0.108583333333333,-1.52983333333333,-0.250833333333333,0.175333333333333,1.57875,0.7713,-0.634675,-0.0999,18.6586666666667,7.20516666666667,-16.3311666666667,533.2735,1,1,1,1
24-May-2018 12:16:34,0,0.9573,0.0274666666666667,-0.0729333333333333,1.85671428571429,-2.63557142857143,0.157571428571429,344.050666666667,-0.87518,0.28394,-0.49264,1.000375,-0.11925,-1.215625,48.253,0.9503,-0.196383333333333,0.0887833333333333,1.21016666666667,-2.4745,-0.573333333333333,1.557,0.849825,-0.5988375,-0.0750375,-6.49383333333333,1.65633333333333,2.08333333333333,545.985,1,1,1,1
24-May-2018 12:16:34,0,0.9573,0.0274666666666667,-0.0729333333333333,1.85671428571429,-2.63557142857143,0.157571428571429,344.050666666667,-0.87518,0.28394,-0.49264,1.000375,-0.11925,-1.215625,48.253,0.9503,-0.196383333333333,0.0887833333333333,1.21016666666667,-2.4745,-0.573333333333333,1.557,0.849825,-0.5988375,-0.0750375,-6.49383333333333,1.65633333333333,2.08333333333333,545.985,1,1,1,1
24-May-2018 12:16:34,0,0.9573,0.0274666666666667,-0.0729333333333333,1.85671428571429,-2.63557142857143,0.157571428571429,344.050666666667,-0.87518,0.28394,-0.49264,1.000375,-0.11925,-1.215625,48.253,0.9503,-0.196383333333333,0.0887833333333333,1.21016666666667,-2.4745,-0.573333333333333,1.557,0.849825,-0.5988375,-0.0750375,-6.49383333333333,1.65633333333333,2.08333333333333,545.985,1,1,1,1
24-May-2018 12:16:34,0,0.9573,0.0274666666666667,-0.0729333333333333,1.85671428571429,-2.63557142857143,0.157571428571429,344.050666666667,-0.87518,0.28394,-0.49264,1.000375,-0.11925,-1.215625,48.253,0.9503,-0.196383333333333,0.0887833333333333,1.21016666666667,-2.4745,-0.573333333333333,1.557,0.849825,-0.5988375,-0.0750375,-6.49383333333333,1.65633333333333,2.08333333333333,545.985,1,1,1,1
24-May-2018 12:16:35,0,0.95285,0.03285,-0.0909,1.33271428571429,-0.180142857142857,0.505571428571429,326.1282,-0.8794,0.27302,-0.47596,3.71971428571429,-3.91757142857143,-0.510285714285714,50.457,0.94956,-0.19474,0.10168,0.2326,-1.166,-0.216,1.558,0.8258,-0.60632,-0.0828,2.21271428571429,1.04528571428571,1.17571428571429,543.483,1,1,1,1
24-May-2018 12:16:35,0,0.95285,0.03285,-0.0909,1.33271428571429,-0.180142857142857,0.505571428571429,326.1282,-0.8794,0.27302,-0.47596,3.71971428571429,-3.91757142857143,-0.510285714285714,50.457,0.94956,-0.19474,0.10168,0.2326,-1.166,-0.216,1.558,0.8258,-0.60632,-0.0828,2.21271428571429,1.04528571428571,1.17571428571429,543.483,1,1,1,1
24-May-2018 12:16:35,0,0.95285,0.03285,-0.0909,1.33271428571429,-0.180142857142857,0.505571428571429,326.1282,-0.8794,0.27302,-0.47596,3.71971428571429,-3.91757142857143,-0.510285714285714,50.457,0.94956,-0.19474,0.10168,0.2326,-1.166,-0.216,1.558,0.8258,-0.60632,-0.0828,2.21271428571429,1.04528571428571,1.17571428571429,543.483,1,1,1,1
24-May-2018 12:16:35,0,0.95285,0.03285,-0.0909,1.33271428571429,-0.180142857142857,0.505571428571429,326.1282,-0.8794,0.27302,-0.47596,3.71971428571429,-3.91757142857143,-0.510285714285714,50.457,0.94956,-0.19474,0.10168,0.2326,-1.166,-0.216,1.558,0.8258,-0.60632,-0.0828,2.21271428571429,1.04528571428571,1.17571428571429,543.483,1,1,1,1
24-May-2018 12:16:36,0,0.9526,0.02816,-0.10318,1.9024,-0.073,0.305,323.662,-0.8803,0.27604,-0.4799,-0.118333333333333,0.564111111111111,0.00877777777777777,50.091,0.9496,-0.19574,0.0895,0.205166666666667,-1.24833333333333,-0.23,1.5604,0.81968,-0.58826,-0.23204,-22.5732,1.6952,1.0366,537.416,1,1,1,1
24-May-2018 12:16:36,0,0.9526,0.02816,-0.10318,1.9024,-0.073,0.305,323.662,-0.8803,0.27604,-0.4799,-0.118333333333333,0.564111111111111,0.00877777777777777,50.091,0.9496,-0.19574,0.0895,0.205166666666667,-1.24833333333333,-0.23,1.5604,0.81968,-0.58826,-0.23204,-22.5732,1.6952,1.0366,537.416,1,1,1,1
24-May-2018 12:16:36,0,0.9526,0.02816,-0.10318,1.9024,-0.073,0.305,323.662,-0.8803,0.27604,-0.4799,-0.118333333333333,0.564111111111111,0.00877777777777777,50.091,0.9496,-0.19574,0.0895,0.205166666666667,-1.24833333333333,-0.23,1.5604,0.81968,-0.58826,-0.23204,-22.5732,1.6952,1.0366,537.416,1,1,1,1
24-May-2018 12:16:36,0,0.9526,0.02816,-0.10318,1.9024,-0.073,0.305,323.662,-0.8803,0.27604,-0.4799,-0.118333333333333,0.564111111111111,0.00877777777777777,50.091,0.9496,-0.19574,0.0895,0.205166666666667,-1.24833333333333,-0.23,1.5604,0.81968,-0.58826,-0.23204,-22.5732,1.6952,1.0366,537.416,1,1,1,1
24-May-2018 12:16:37,0,0.950566666666667,0.0285666666666667,-0.112216666666667,-4.072,-2.93516666666667,0.5085,308.383333333333,-0.8813,0.268533333333333,-0.487666666666667,1.32844444444444,6.36111111111111,-2.58333333333333,49.908,0.94964,-0.19186,0.0981,-2.52783333333333,1.41283333333333,-1.15333333333333,1.51175,0.78416,-0.52596,-0.39212,-23.5875,2.185,12.4798333333333,307.363,1,1,1,1
24-May-2018 12:16:37,0,0.950566666666667,0.0285666666666667,-0.112216666666667,-4.072,-2.93516666666667,0.5085,308.383333333333,-0.8813,0.268533333333333,-0.487666666666667,1.32844444444444,6.36111111111111,-2.58333333333333,49.908,0.94964,-0.19186,0.0981,-2.52783333333333,1.41283333333333,-1.15333333333333,1.51175,0.78416,-0.52596,-0.39212,-23.5875,2.185,12.4798333333333,307.363,1,1,1,1
24-May-2018 12:16:37,0,0.950566666666667,0.0285666666666667,-0.112216666666667,-4.072,-2.93516666666667,0.5085,308.383333333333,-0.8813,0.268533333333333,-0.487666666666667,1.32844444444444,6.36111111111111,-2.58333333333333,49.908,0.94964,-0.19186,0.0981,-2.52783333333333,1.41283333333333,-1.15333333333333,1.51175,0.78416,-0.52596,-0.39212,-23.5875,2.185,12.4798333333333,307.363,1,1,1,1
24-May-2018 12:16:37,0,0.950566666666667,0.0285666666666667,-0.112216666666667,-4.072,-2.93516666666667,0.5085,308.383333333333,-0.8813,0.268533333333333,-0.487666666666667,1.32844444444444,6.36111111111111,-2.58333333333333,49.908,0.94964,-0.19186,0.0981,-2.52783333333333,1.41283333333333,-1.15333333333333,1.51175,0.78416,-0.52596,-0.39212,-23.5875,2.185,12.4798333333333,307.363,1,1,1,1
24-May-2018 12:16:38,0,0.948783333333333,0.0411166666666667,-0.137933333333333,-1.9118,0.7684,0.296,298.271,-0.87095,0.26175,-0.525,4.49233333333333,16.5213333333333,-1.40566666666667,49.908,0.951628571428571,-0.176714285714286,0.131157142857143,-0.196,-2.2525,0.13825,1.6406,0.6833,-0.6034,-0.516625,7.64216666666667,2.124,3.50633333333333,275.478,1,1,1,1
24-May-2018 12:16:38,0,0.948783333333333,0.0411166666666667,-0.137933333333333,-1.9118,0.7684,0.296,298.271,-0.87095,0.26175,-0.525,4.49233333333333,16.5213333333333,-1.40566666666667,49.908,0.951628571428571,-0.176714285714286,0.131157142857143,-0.196,-2.2525,0.13825,1.6406,0.6833,-0.6034,-0.516625,7.64216666666667,2.124,3.50633333333333,275.478,1,1,1,1
24-May-2018 12:16:38,0,0.948783333333333,0.0411166666666667,-0.137933333333333,-1.9118,0.7684,0.296,298.271,-0.87095,0.26175,-0.525,4.49233333333333,16.5213333333333,-1.40566666666667,49.908,0.951628571428571,-0.176714285714286,0.131157142857143,-0.196,-2.2525,0.13825,1.6406,0.6833,-0.6034,-0.516625,7.64216666666667,2.124,3.50633333333333,275.478,1,1,1,1
24-May-2018 12:16:38,0,0.948783333333333,0.0411166666666667,-0.137933333333333,-1.9118,0.7684,0.296,298.271,-0.87095,0.26175,-0.525,4.49233333333333,16.5213333333333,-1.40566666666667,49.908,0.951628571428571,-0.176714285714286,0.131157142857143,-0.196,-2.2525,0.13825,1.6406,0.6833,-0.6034,-0.516625,7.64216666666667,2.124,3.50633333333333,275.478,1,1,1,1
24-May-2018 12:16:39,0,0.9494,0.038525,-0.1281375,7.23566666666667,0.660833333333333,0.0628333333333333,298.271,-0.848175,0.2581,-0.545225,15.66975,-1.953125,6.409875,49.62,0.950566666666667,-0.1911,0.0978833333333333,0.9145,-1.31,0.0625,1.63666666666667,0.734925,-0.584675,-0.344075,41.067,-7.5915,-12.3068333333333,284.676666666667,1,1,1,1
24-May-2018 12:16:39,0,0.9494,0.038525,-0.1281375,7.23566666666667,0.660833333333333,0.0628333333333333,298.271,-0.848175,0.2581,-0.545225,15.66975,-1.953125,6.409875,49.62,0.950566666666667,-0.1911,0.0978833333333333,0.9145,-1.31,0.0625,1.63666666666667,0.734925,-0.584675,-0.344075,41.067,-7.5915,-12.3068333333333,284.676666666667,1,1,1,1
24-May-2018 12:16:39,0,0.9494,0.038525,-0.1281375,7.23566666666667,0.660833333333333,0.0628333333333333,298.271,-0.848175,0.2581,-0.545225,15.66975,-1.953125,6.409875,49.62,0.950566666666667,-0.1911,0.0978833333333333,0.9145,-1.31,0.0625,1.63666666666667,0.734925,-0.584675,-0.344075,41.067,-7.5915,-12.3068333333333,284.676666666667,1,1,1,1
24-May-2018 12:16:39,0,0.9494,0.038525,-0.1281375,7.23566666666667,0.660833333333333,0.0628333333333333,298.271,-0.848175,0.2581,-0.545225,15.66975,-1.953125,6.409875,49.62,0.950566666666667,-0.1911,0.0978833333333333,0.9145,-1.31,0.0625,1.63666666666667,0.734925,-0.584675,-0.344075,41.067,-7.5915,-12.3068333333333,284.676666666667,1,1,1,1
24-May-2018 12:16:40,0,0.949733333333333,0.0311666666666667,-0.120383333333333,1.014,0.06275,0.5185,298.271,-0.84152,0.25626,-0.5263,2.01766666666667,-10.0065555555556,2.69644444444444,49.62,0.950316666666667,-0.1927,0.0951666666666667,-0.191666666666667,-1.41666666666667,-0.31,1.5268,0.755566666666667,-0.669,-0.254666666666667,2.378,-2.561,-0.36575,428.938,1,1,1,1
24-May-2018 12:16:40,0,0.949733333333333,0.0311666666666667,-0.120383333333333,1.014,0.06275,0.5185,298.271,-0.84152,0.25626,-0.5263,2.01766666666667,-10.0065555555556,2.69644444444444,49.62,0.950316666666667,-0.1927,0.0951666666666667,-0.191666666666667,-1.41666666666667,-0.31,1.5268,0.755566666666667,-0.669,-0.254666666666667,2.378,-2.561,-0.36575,428.938,1,1,1,1
24-May-2018 12:16:40,0,0.949733333333333,0.0311666666666667,-0.120383333333333,1.014,0.06275,0.5185,298.271,-0.84152,0.25626,-0.5263,2.01766666666667,-10.0065555555556,2.69644444444444,49.62,0.950316666666667,-0.1927,0.0951666666666667,-0.191666666666667,-1.41666666666667,-0.31,1.5268,0.755566666666667,-0.669,-0.254666666666667,2.378,-2.561,-0.36575,428.938,1,1,1,1
24-May-2018 12:16:40,0,0.949733333333333,0.0311666666666667,-0.120383333333333,1.014,0.06275,0.5185,298.271,-0.84152,0.25626,-0.5263,2.01766666666667,-10.0065555555556,2.69644444444444,49.62,0.950316666666667,-0.1927,0.0951666666666667,-0.191666666666667,-1.41666666666667,-0.31,1.5268,0.755566666666667,-0.669,-0.254666666666667,2.378,-2.561,-0.36575,428.938,1,1,1,1
24-May-2018 12:16:41,0,0.95025,0.0281166666666667,-0.126633333333333,0.787111111111111,0.360333333333333,0.332111111111111,298.271,-0.88585,0.244675,-0.524325,1.16955555555556,-9.32677777777778,0.733333333333333,50.8733333333333,0.951171428571429,-0.191642857142857,0.0924142857142857,0.063,-1.178,-0.276,1.5176,0.781925,-0.643025,-0.2946875,-15.7196,1.0124,-2.1462,420.248666666667,1,1,1,1
24-May-2018 12:16:41,0,0.95025,0.0281166666666667,-0.126633333333333,0.787111111111111,0.360333333333333,0.332111111111111,298.271,-0.88585,0.244675,-0.524325,1.16955555555556,-9.32677777777778,0.733333333333333,50.8733333333333,0.951171428571429,-0.191642857142857,0.0924142857142857,0.063,-1.178,-0.276,1.5176,0.781925,-0.643025,-0.2946875,-15.7196,1.0124,-2.1462,420.248666666667,1,1,1,1
24-May-2018 12:16:41,0,0.95025,0.0281166666666667,-0.126633333333333,0.787111111111111,0.360333333333333,0.332111111111111,298.271,-0.88585,0.244675,-0.524325,1.16955555555556,-9.32677777777778,0.733333333333333,50.8733333333333,0.951171428571429,-0.191642857142857,0.0924142857142857,0.063,-1.178,-0.276,1.5176,0.781925,-0.643025,-0.2946875,-15.7196,1.0124,-2.1462,420.248666666667,1,1,1,1
24-May-2018 12:16:41,0,0.95025,0.0281166666666667,-0.126633333333333,0.787111111111111,0.360333333333333,0.332111111111111,298.271,-0.88585,0.244675,-0.524325,1.16955555555556,-9.32677777777778,0.733333333333333,50.8733333333333,0.951171428571429,-0.191642857142857,0.0924142857142857,0.063,-1.178,-0.276,1.5176,0.781925,-0.643025,-0.2946875,-15.7196,1.0124,-2.1462,420.248666666667,1,1,1,1
24-May-2018 12:16:42,0,0.9511,0.0278666666666667,-0.117716666666667,0.96025,0.42825,0.12375,305.982,-0.8843,0.21545,-0.51905,5.61088888888889,4.92588888888889,-2.99933333333333,53.38,0.94934,-0.19424,0.0973,-0.22625,-1.0025,-0.02925,1.5195,0.808,-0.5876,-0.2645,13.7805714285714,-1.51571428571429,-1.82928571428571,402.656,1,1,1,1
24-May-2018 12:16:42,0,0.9511,0.0278666666666667,-0.117716666666667,0.96025,0.42825,0.12375,305.982,-0.8843,0.21545,-0.51905,5.61088888888889,4.92588888888889,-2.99933333333333,53.38,0.94934,-0.19424,0.0973,-0.22625,-1.0025,-0.02925,1.5195,0.808,-0.5876,-0.2645,13.7805714285714,-1.51571428571429,-1.82928571428571,402.656,1,1,1,1
24-May-2018 12:16:42,0,0.9511,0.0278666666666667,-0.117716666666667,0.96025,0.42825,0.12375,305.982,-0.8843,0.21545,-0.51905,5.61088888888889,4.92588888888889,-2.99933333333333,53.38,0.94934,-0.19424,0.0973,-0.22625,-1.0025,-0.02925,1.5195,0.808,-0.5876,-0.2645,13.7805714285714,-1.51571428571429,-1.82928571428571,402.656,1,1,1,1
24-May-2018 12:16:42,0,0.9511,0.0278666666666667,-0.117716666666667,0.96025,0.42825,0.12375,305.982,-0.8843,0.21545,-0.51905,5.61088888888889,4.92588888888889,-2.99933333333333,53.38,0.94934,-0.19424,0.0973,-0.22625,-1.0025,-0.02925,1.5195,0.808,-0.5876,-0.2645,13.7805714285714,-1.51571428571429,-1.82928571428571,402.656,1,1,1,1
24-May-2018 12:16:43,0,0.92154,0.0274,-0.20176,18.2491666666667,34.1066666666667,-2.6645,302.5996,-0.85184,0.25352,-0.52302,-2.20122222222222,9.89488888888889,9.65266666666667,53.38,0.952383333333333,-0.18045,0.0817833333333333,33.08,0.767,-6.9125,1.534,0.6313,-0.6858,-0.0574,57.6567142857143,-46.9765714285714,83.1881428571429,514.42725,1,1,1,1
24-May-2018 12:16:43,0,0.92154,0.0274,-0.20176,18.2491666666667,34.1066666666667,-2.6645,302.5996,-0.85184,0.25352,-0.52302,-2.20122222222222,9.89488888888889,9.65266666666667,53.38,0.952383333333333,-0.18045,0.0817833333333333,33.08,0.767,-6.9125,1.534,0.6313,-0.6858,-0.0574,57.6567142857143,-46.9765714285714,83.1881428571429,514.42725,1,1,1,1
24-May-2018 12:16:43,0,0.92154,0.0274,-0.20176,18.2491666666667,34.1066666666667,-2.6645,302.5996,-0.85184,0.25352,-0.52302,-2.20122222222222,9.89488888888889,9.65266666666667,53.38,0.952383333333333,-0.18045,0.0817833333333333,33.08,0.767,-6.9125,1.534,0.6313,-0.6858,-0.0574,57.6567142857143,-46.9765714285714,83.1881428571429,514.42725,1,1,1,1
24-May-2018 12:16:43,0,0.92154,0.0274,-0.20176,18.2491666666667,34.1066666666667,-2.6645,302.5996,-0.85184,0.25352,-0.52302,-2.20122222222222,9.89488888888889,9.65266666666667,53.38,0.952383333333333,-0.18045,0.0817833333333333,33.08,0.767,-6.9125,1.534,0.6313,-0.6858,-0.0574,57.6567142857143,-46.9765714285714,83.1881428571429,514.42725,1,1,1,1
24-May-2018 12:16:44,0,0.8519375,-0.0411,-0.3756375,43.9425,4.84925,-27.925,252.569333333333,-0.859825,0.26695,-0.5336,-8.68357142857143,-0.554857142857143,-1.55714285714286,51.3075,0.97575,-0.303775,0.316325,64.592,-9.3922,8.0856,1.6175,-0.838466666666667,-0.028,-0.530066666666667,-171.704333333333,2.439,64.207,527.3715,1,1,1,1
24-May-2018 12:16:44,0,0.8519375,-0.0411,-0.3756375,43.9425,4.84925,-27.925,252.569333333333,-0.859825,0.26695,-0.5336,-8.68357142857143,-0.554857142857143,-1.55714285714286,51.3075,0.97575,-0.303775,0.316325,64.592,-9.3922,8.0856,1.6175,-0.838466666666667,-0.028,-0.530066666666667,-171.704333333333,2.439,64.207,527.3715,1,1,1,1
24-May-2018 12:16:44,0,0.8519375,-0.0411,-0.3756375,43.9425,4.84925,-27.925,252.569333333333,-0.859825,0.26695,-0.5336,-8.68357142857143,-0.554857142857143,-1.55714285714286,51.3075,0.97575,-0.303775,0.316325,64.592,-9.3922,8.0856,1.6175,-0.838466666666667,-0.028,-0.530066666666667,-171.704333333333,2.439,64.207,527.3715,1,1,1,1
24-May-2018 12:16:44,0,0.8519375,-0.0411,-0.3756375,43.9425,4.84925,-27.925,252.569333333333,-0.859825,0.26695,-0.5336,-8.68357142857143,-0.554857142857143,-1.55714285714286,51.3075,0.97575,-0.303775,0.316325,64.592,-9.3922,8.0856,1.6175,-0.838466666666667,-0.028,-0.530066666666667,-171.704333333333,2.439,64.207,527.3715,1,1,1,1
24-May-2018 12:16:45,0,0.921914285714286,0.0552142857142857,-0.313714285714286,15.732,6.671,1.3352,329.714,-0.8605,0.2778,-0.52145,-2.74866666666667,-2.06388888888889,-1.08788888888889,49.235,0.92685,-0.079525,0.34945,31.148,-14.17,14.4016,3.76516666666667,-0.8141,0.158525,-0.48115,-12.60675,6.3415,-9.177,312.606,1,1,1,1
24-May-2018 12:16:45,0,0.921914285714286,0.0552142857142857,-0.313714285714286,15.732,6.671,1.3352,329.714,-0.8605,0.2778,-0.52145,-2.74866666666667,-2.06388888888889,-1.08788888888889,49.235,0.92685,-0.079525,0.34945,31.148,-14.17,14.4016,3.76516666666667,-0.8141,0.158525,-0.48115,-12.60675,6.3415,-9.177,312.606,1,1,1,1
24-May-2018 12:16:45,0,0.921914285714286,0.0552142857142857,-0.313714285714286,15.732,6.671,1.3352,329.714,-0.8605,0.2778,-0.52145,-2.74866666666667,-2.06388888888889,-1.08788888888889,49.235,0.92685,-0.079525,0.34945,31.148,-14.17,14.4016,3.76516666666667,-0.8141,0.158525,-0.48115,-12.60675,6.3415,-9.177,312.606,1,1,1,1
24-May-2018 12:16:45,0,0.921914285714286,0.0552142857142857,-0.313714285714286,15.732,6.671,1.3352,329.714,-0.8605,0.2778,-0.52145,-2.74866666666667,-2.06388888888889,-1.08788888888889,49.235,0.92685,-0.079525,0.34945,31.148,-14.17,14.4016,3.76516666666667,-0.8141,0.158525,-0.48115,-12.60675,6.3415,-9.177,312.606,1,1,1,1
24-May-2018 12:16:46,0,0.86938,0.06166,-0.26446,-35.05,2.4318,9.3386,356.707,-0.86122,0.27844,-0.52526,1.41066666666667,-2.11144444444444,0.198111111111111,49.235,0.95496,-0.1694,0.32272,-36.172,7.754,3.402,5.854,-0.798533333333333,-0.2402,-0.5432,22.6462,-2.8902,-19.5122,294.497,0,1,1,1
24-May-2018 12:16:46,0,0.86938,0.06166,-0.26446,-35.05,2.4318,9.3386,356.707,-0.86122,0.27844,-0.52526,1.41066666666667,-2.11144444444444,0.198111111111111,49.235,0.95496,-0.1694,0.32272,-36.172,7.754,3.402,5.854,-0.798533333333333,-0.2402,-0.5432,22.6462,-2.8902,-19.5122,294.497,0,1,1,1
24-May-2018 12:16:46,0,0.86938,0.06166,-0.26446,-35.05,2.4318,9.3386,356.707,-0.86122,0.27844,-0.52526,1.41066666666667,-2.11144444444444,0.198111111111111,49.235,0.95496,-0.1694,0.32272,-36.172,7.754,3.402,5.854,-0.798533333333333,-0.2402,-0.5432,22.6462,-2.8902,-19.5122,294.497,0,1,1,1
24-May-2018 12:16:46,0,0.86938,0.06166,-0.26446,-35.05,2.4318,9.3386,356.707,-0.86122,0.27844,-0.52526,1.41066666666667,-2.11144444444444,0.198111111111111,49.235,0.95496,-0.1694,0.32272,-36.172,7.754,3.402,5.854,-0.798533333333333,-0.2402,-0.5432,22.6462,-2.8902,-19.5122,294.497,0,1,1,1
24-May-2018 12:16:47,0,0.949228571428572,0.00754285714285714,-0.347285714285714,-3.10333333333333,5.79333333333333,-10.8133333333333,404.400333333333,-0.8589,0.275066666666667,-0.525033333333333,0.3675,3.44566666666667,-2.59733333333333,50.9165,0.89465,-0.2835,0.272775,-25.97325,-21.045,-6.49125,7.368,-0.7769,-0.368333333333333,-0.397466666666667,19.512,-40.752,93.313,291.7352,1,1,1,1
24-May-2018 12:16:47,0,0.949228571428572,0.00754285714285714,-0.347285714285714,-3.10333333333333,5.79333333333333,-10.8133333333333,404.400333333333,-0.8589,0.275066666666667,-0.525033333333333,0.3675,3.44566666666667,-2.59733333333333,50.9165,0.89465,-0.2835,0.272775,-25.97325,-21.045,-6.49125,7.368,-0.7769,-0.368333333333333,-0.397466666666667,19.512,-40.752,93.313,291.7352,1,1,1,1
24-May-2018 12:16:47,0,0.949228571428572,0.00754285714285714,-0.347285714285714,-3.10333333333333,5.79333333333333,-10.8133333333333,404.400333333333,-0.8589,0.275066666666667,-0.525033333333333,0.3675,3.44566666666667,-2.59733333333333,50.9165,0.89465,-0.2835,0.272775,-25.97325,-21.045,-6.49125,7.368,-0.7769,-0.368333333333333,-0.397466666666667,19.512,-40.752,93.313,291.7352,1,1,1,1
24-May-2018 12:16:47,0,0.949228571428572,0.00754285714285714,-0.347285714285714,-3.10333333333333,5.79333333333333,-10.8133333333333,404.400333333333,-0.8589,0.275066666666667,-0.525033333333333,0.3675,3.44566666666667,-2.59733333333333,50.9165,0.89465,-0.2835,0.272775,-25.97325,-21.045,-6.49125,7.368,-0.7769,-0.368333333333333,-0.397466666666667,19.512,-40.752,93.313,291.7352,1,1,1,1
24-May-2018 12:16:48,0,0.8917,-0.051725,-0.2613,132.376,-3.7998,-53.26,401.483,-0.852916666666667,0.273633333333333,-0.528283333333333,3.55011111111111,2.372,2.13522222222222,52.598,0.88478,-0.43696,0.30186,82.385,3.36975,2.3745,5.54,-0.7543,-0.3996,-0.1046,63.9635,8.5975,-30.427,353.056666666667,1,1,1,1
24-May-2018 12:16:48,0,0.8917,-0.051725,-0.2613,132.376,-3.7998,-53.26,401.483,-0.852916666666667,0.273633333333333,-0.528283333333333,3.55011111111111,2.372,2.13522222222222,52.598,0.88478,-0.43696,0.30186,82.385,3.36975,2.3745,5.54,-0.7543,-0.3996,-0.1046,63.9635,8.5975,-30.427,353.056666666667,1,1,1,1
24-May-2018 12:16:48,0,0.8917,-0.051725,-0.2613,132.376,-3.7998,-53.26,401.483,-0.852916666666667,0.273633333333333,-0.528283333333333,3.55011111111111,2.372,2.13522222222222,52.598,0.88478,-0.43696,0.30186,82.385,3.36975,2.3745,5.54,-0.7543,-0.3996,-0.1046,63.9635,8.5975,-30.427,353.056666666667,1,1,1,1
24-May-2018 12:16:48,0,0.8917,-0.051725,-0.2613,132.376,-3.7998,-53.26,401.483,-0.852916666666667,0.273633333333333,-0.528283333333333,3.55011111111111,2.372,2.13522222222222,52.598,0.88478,-0.43696,0.30186,82.385,3.36975,2.3745,5.54,-0.7543,-0.3996,-0.1046,63.9635,8.5975,-30.427,353.056666666667,1,1,1,1
24-May-2018 12:16:49,0,0.903125,0.025375,-0.404675,114.171666666667,0.837500000000001,-32.295,401.483,-0.8686,0.2599,-0.5214,-3.36557142857143,8.61171428571429,-3.42728571428571,54.07025,0.95954,-0.11684,0.35912,116.689125,-40.76375,34.575,5.1195,-0.9301,-0.3517,-0.0554,-507.5,-114.51,-53.11,512.230666666667,1,1,1,1
24-May-2018 12:16:49,0,0.903125,0.025375,-0.404675,114.171666666667,0.837500000000001,-32.295,401.483,-0.8686,0.2599,-0.5214,-3.36557142857143,8.61171428571429,-3.42728571428571,54.07025,0.95954,-0.11684,0.35912,116.689125,-40.76375,34.575,5.1195,-0.9301,-0.3517,-0.0554,-507.5,-114.51,-53.11,512.230666666667,1,1,1,1
24-May-2018 12:16:49,0,0.903125,0.025375,-0.404675,114.171666666667,0.837500000000001,-32.295,401.483,-0.8686,0.2599,-0.5214,-3.36557142857143,8.61171428571429,-3.42728571428571,54.07025,0.95954,-0.11684,0.35912,116.689125,-40.76375,34.575,5.1195,-0.9301,-0.3517,-0.0554,-507.5,-114.51,-53.11,512.230666666667,1,1,1,1
24-May-2018 12:16:49,0,0.903125,0.025375,-0.404675,114.171666666667,0.837500000000001,-32.295,401.483,-0.8686,0.2599,-0.5214,-3.36557142857143,8.61171428571429,-3.42728571428571,54.07025,0.95954,-0.11684,0.35912,116.689125,-40.76375,34.575,5.1195,-0.9301,-0.3517,-0.0554,-507.5,-114.51,-53.11,512.230666666667,1,1,1,1
24-May-2018 12:16:50,0,0.918385714285714,0.0642285714285714,-0.311314285714286,6.5868,11.0877,-3.8912,401.483,-0.835216666666667,0.31905,-0.554233333333333,6.12933333333333,-8.29255555555556,27.9517777777778,54.561,0.957975,-0.131225,0.0483,-0.228249999999999,0.88675,2.14925,3.626,-0.9042,-0.537,-0.2097,-148.736666666667,0.386333333333333,13.374,587.495,1,1,1,1
24-May-2018 12:16:50,0,0.918385714285714,0.0642285714285714,-0.311314285714286,6.5868,11.0877,-3.8912,401.483,-0.835216666666667,0.31905,-0.554233333333333,6.12933333333333,-8.29255555555556,27.9517777777778,54.561,0.957975,-0.131225,0.0483,-0.228249999999999,0.88675,2.14925,3.626,-0.9042,-0.537,-0.2097,-148.736666666667,0.386333333333333,13.374,587.495,1,1,1,1
24-May-2018 12:16:50,0,0.918385714285714,0.0642285714285714,-0.311314285714286,6.5868,11.0877,-3.8912,401.483,-0.835216666666667,0.31905,-0.554233333333333,6.12933333333333,-8.29255555555556,27.9517777777778,54.561,0.957975,-0.131225,0.0483,-0.228249999999999,0.88675,2.14925,3.626,-0.9042,-0.537,-0.2097,-148.736666666667,0.386333333333333,13.374,587.495,1,1,1,1
24-May-2018 12:16:50,0,0.918385714285714,0.0642285714285714,-0.311314285714286,6.5868,11.0877,-3.8912,401.483,-0.835216666666667,0.31905,-0.554233333333333,6.12933333333333,-8.29255555555556,27.9517777777778,54.561,0.957975,-0.131225,0.0483,-0.228249999999999,0.88675,2.14925,3.626,-0.9042,-0.537,-0.2097,-148.736666666667,0.386333333333333,13.374,587.495,1,1,1,1
24-May-2018 12:16:51,0,0.949111111111111,0.0497222222222222,-0.116611111111111,5.434125,2.005375,-0.52125,401.483,-0.67085,0.59645,-0.538625,18.5098,-26.066,56.948,71.289,0.9517,-0.1937,0.095275,4.55166666666667,-1.2555,1.088,3.4758,-1.01515,-0.2677,-0.30855,-136.46,-45.7315,-78.3535,449.697,1,1,1,1
24-May-2018 12:16:51,0,0.949111111111111,0.0497222222222222,-0.116611111111111,5.434125,2.005375,-0.52125,401.483,-0.67085,0.59645,-0.538625,18.5098,-26.066,56.948,71.289,0.9517,-0.1937,0.095275,4.55166666666667,-1.2555,1.088,3.4758,-1.01515,-0.2677,-0.30855,-136.46,-45.7315,-78.3535,449.697,1,1,1,1
24-May-2018 12:16:51,0,0.949111111111111,0.0497222222222222,-0.116611111111111,5.434125,2.005375,-0.52125,401.483,-0.67085,0.59645,-0.538625,18.5098,-26.066,56.948,71.289,0.9517,-0.1937,0.095275,4.55166666666667,-1.2555,1.088,3.4758,-1.01515,-0.2677,-0.30855,-136.46,-45.7315,-78.3535,449.697,1,1,1,1
24-May-2018 12:16:51,0,0.949111111111111,0.0497222222222222,-0.116611111111111,5.434125,2.005375,-0.52125,401.483,-0.67085,0.59645,-0.538625,18.5098,-26.066,56.948,71.289,0.9517,-0.1937,0.095275,4.55166666666667,-1.2555,1.088,3.4758,-1.01515,-0.2677,-0.30855,-136.46,-45.7315,-78.3535,449.697,1,1,1,1
