TIME,HELMET_RAW,BELT_ACC_X,BELT_ACC_Y,BELT_ACC_Z,BELT_ANG_X,BELT_ANG_Y,BELT_ANG_Z,BELT_LUMINOSITY,NECK_ACC_X,NECK_ACC_Y,NECK_ACC_Z,NECK_ANG_X,NECK_ANG_Y,NECK_ANG_Z,NECK_LUMINOSITY,PCKT_ACC_X,PCKT_ACC_Y,PCKT_ACC_Z,PCKT_ANG_X,PCKT_ANG_Y,PCKT_ANG_Z,PCKT_LUMINOSITY,WRST_ACC_X,WRST_ACC_Y,WRST_ACC_Z,WRST_ANG_X,WRST_ANG_Y,WRST_ANG_Z,WRST_LUMINOSITY,IR_1,IR_2,IR_3,IR_4
24-May-2018 12:31:20,-511.888888888889,0.915933333333333,-0.00703333333333333,0.3262,5.764,-2.755,2.058,409.554,-0.95468,0.23876,-0.32514,36.42,-56.1866666666667,-6.27666666666667,56.844,0.771357142857143,-0.595942857142857,0.124557142857143,-6.14,-3.168,2.439,4.72433333333333,0.50725,-0.83895,-0.298,4.317,-4.317,-10.7562,379.6474,1,1,1,1
24-May-2018 12:31:20,-511.888888888889,0.915933333333333,-0.00703333333333333,0.3262,5.764,-2.755,2.058,409.554,-0.95468,0.23876,-0.32514,36.42,-56.1866666666667,-6.27666666666667,56.844,0.771357142857143,-0.595942857142857,0.124557142857143,-6.14,-3.168,2.439,4.72433333333333,0.50725,-0.83895,-0.298,4.317,-4.317,-10.7562,379.6474,1,1,1,1
24-May-2018 12:31:20,-511.888888888889,0.915933333333333,-0.00703333333333333,0.3262,5.764,-2.755,2.058,409.554,-0.95468,0.23876,-0.32514,36.42,-56.1866666666667,-6.27666666666667,56.844,0.771357142857143,-0.595942857142857,0.124557142857143,-6.14,-3.168,2.439,4.72433333333333,0.50725,-0.83895,-0.298,4.317,-4.317,-10.7562,379.6474,1,1,1,1
24-May-2018 12:31:20,-511.888888888889,0.915933333333333,-0.00703333333333333,0.3262,5.764,-2.755,2.058,409.554,-0.95468,0.23876,-0.32514,36.42,-56.1866666666667,-6.27666666666667,56.844,0.771357142857143,-0.595942857142857,0.124557142857143,-6.14,-3.168,2.439,4.72433333333333,0.50725,-0.83895,-0.298,4.317,-4.317,-10.7562,379.6474,1,1,1,1
24-May-2018 12:31:21,-512.375,0.931914285714286,-0.0160428571428571,0.293642857142857,2.08457142857143,-1.47928571428571,1.30914285714286,484.94225,-0.9281,0.35002,-0.31552,-16.644,12.3712222222222,51.3988888888889,56.844,0.756816666666667,-0.61775,0.0384333333333333,-4.092,-1.4452,0.5862,4.70066666666667,0.5451,-0.841775,-0.261425,0.655375,-1.371875,-1.26525,442.329,1,1,1,1
24-May-2018 12:31:21,-512.375,0.931914285714286,-0.0160428571428571,0.293642857142857,2.08457142857143,-1.47928571428571,1.30914285714286,484.94225,-0.9281,0.35002,-0.31552,-16.644,12.3712222222222,51.3988888888889,56.844,0.756816666666667,-0.61775,0.0384333333333333,-4.092,-1.4452,0.5862,4.70066666666667,0.5451,-0.841775,-0.261425,0.655375,-1.371875,-1.26525,442.329,1,1,1,1
24-May-2018 12:31:21,-512.375,0.931914285714286,-0.0160428571428571,0.293642857142857,2.08457142857143,-1.47928571428571,1.30914285714286,484.94225,-0.9281,0.35002,-0.31552,-16.644,12.3712222222222,51.3988888888889,56.844,0.756816666666667,-0.61775,0.0384333333333333,-4.092,-1.4452,0.5862,4.70066666666667,0.5451,-0.841775,-0.261425,0.655375,-1.371875,-1.26525,442.329,1,1,1,1
24-May-2018 12:31:21,-512.375,0.931914285714286,-0.0160428571428571,0.293642857142857,2.08457142857143,-1.47928571428571,1.30914285714286,484.94225,-0.9281,0.35002,-0.31552,-16.644,12.3712222222222,51.3988888888889,56.844,0.756816666666667,-0.61775,0.0384333333333333,-4.092,-1.4452,0.5862,4.70066666666667,0.5451,-0.841775,-0.261425,0.655375,-1.371875,-1.26525,442.329,1,1,1,1
24-May-2018 12:31:22,-2048,0.936966666666667,-0.01585,0.271633333333333,0.458833333333333,-2.10666666666667,0.428666666666667,508.19775,-0.86746,0.47096,-0.314,8.4,12.938,9.096,46.658,0.74668,-0.62502,0.0107,-2.88,-0.5045,-0.139833333333333,4.72033333333333,0.52802,-0.83006,-0.2458,5.0488,4.7074,2.122,451.76625,1,1,1,1
24-May-2018 12:31:22,-2048,0.936966666666667,-0.01585,0.271633333333333,0.458833333333333,-2.10666666666667,0.428666666666667,508.19775,-0.86746,0.47096,-0.314,8.4,12.938,9.096,46.658,0.74668,-0.62502,0.0107,-2.88,-0.5045,-0.139833333333333,4.72033333333333,0.52802,-0.83006,-0.2458,5.0488,4.7074,2.122,451.76625,1,1,1,1
24-May-2018 12:31:22,-2048,0.936966666666667,-0.01585,0.271633333333333,0.458833333333333,-2.10666666666667,0.428666666666667,508.19775,-0.86746,0.47096,-0.314,8.4,12.938,9.096,46.658,0.74668,-0.62502,0.0107,-2.88,-0.5045,-0.139833333333333,4.72033333333333,0.52802,-0.83006,-0.2458,5.0488,4.7074,2.122,451.76625,1,1,1,1
24-May-2018 12:31:22,-2048,0.936966666666667,-0.01585,0.271633333333333,0.458833333333333,-2.10666666666667,0.428666666666667,508.19775,-0.86746,0.47096,-0.314,8.4,12.938,9.096,46.658,0.74668,-0.62502,0.0107,-2.88,-0.5045,-0.139833333333333,4.72033333333333,0.52802,-0.83006,-0.2458,5.0488,4.7074,2.122,451.76625,1,1,1,1
24-May-2018 12:31:23,-1969.25,0.93315,-0.0201666666666667,0.272316666666667,1.19133333333333,3.86166666666667,0.559,538.329,-0.888,0.44686,-0.30058,-23.7597777777778,-7.18777777777778,3.13144444444444,46.658,0.74812,-0.62616,1.21914,-0.0975,-1.511,0.0623333333333333,4.639,0.52502,-0.84898,-0.26256,-2.8414,-0.939,0.5854,457.102,1,1,1,1
24-May-2018 12:31:23,-1969.25,0.93315,-0.0201666666666667,0.272316666666667,1.19133333333333,3.86166666666667,0.559,538.329,-0.888,0.44686,-0.30058,-23.7597777777778,-7.18777777777778,3.13144444444444,46.658,0.74812,-0.62616,1.21914,-0.0975,-1.511,0.0623333333333333,4.639,0.52502,-0.84898,-0.26256,-2.8414,-0.939,0.5854,457.102,1,1,1,1
24-May-2018 12:31:23,-1969.25,0.93315,-0.0201666666666667,0.272316666666667,1.19133333333333,3.86166666666667,0.559,538.329,-0.888,0.44686,-0.30058,-23.7597777777778,-7.18777777777778,3.13144444444444,46.658,0.74812,-0.62616,1.21914,-0.0975,-1.511,0.0623333333333333,4.639,0.52502,-0.84898,-0.26256,-2.8414,-0.939,0.5854,457.102,1,1,1,1
24-May-2018 12:31:23,-1969.25,0.93315,-0.0201666666666667,0.272316666666667,1.19133333333333,3.86166666666667,0.559,538.329,-0.888,0.44686,-0.30058,-23.7597777777778,-7.18777777777778,3.13144444444444,46.658,0.74812,-0.62616,1.21914,-0.0975,-1.511,0.0623333333333333,4.639,0.52502,-0.84898,-0.26256,-2.8414,-0.939,0.5854,457.102,1,1,1,1
24-May-2018 12:31:24,-1323.44444444444,0.928085714285714,-0.0199285714285714,0.282828571428571,-1.5192,-0.5218,-0.4482,515.163666666667,-0.837566666666667,0.499733333333333,-0.262433333333333,10.0657142857143,-19.92,25.3,46.658,0.74526,-0.62494,0.01156,-1.18942857142857,-1.329,-0.205714285714286,4.6865,0.50615,-0.849475,-0.262825,-0.7074,4.3414,2.561,450.943,1,1,1,1
24-May-2018 12:31:24,-1323.44444444444,0.928085714285714,-0.0199285714285714,0.282828571428571,-1.5192,-0.5218,-0.4482,515.163666666667,-0.837566666666667,0.499733333333333,-0.262433333333333,10.0657142857143,-19.92,25.3,46.658,0.74526,-0.62494,0.01156,-1.18942857142857,-1.329,-0.205714285714286,4.6865,0.50615,-0.849475,-0.262825,-0.7074,4.3414,2.561,450.943,1,1,1,1
24-May-2018 12:31:24,-1323.44444444444,0.928085714285714,-0.0199285714285714,0.282828571428571,-1.5192,-0.5218,-0.4482,515.163666666667,-0.837566666666667,0.499733333333333,-0.262433333333333,10.0657142857143,-19.92,25.3,46.658,0.74526,-0.62494,0.01156,-1.18942857142857,-1.329,-0.205714285714286,4.6865,0.50615,-0.849475,-0.262825,-0.7074,4.3414,2.561,450.943,1,1,1,1
24-May-2018 12:31:24,-1323.44444444444,0.928085714285714,-0.0199285714285714,0.282828571428571,-1.5192,-0.5218,-0.4482,515.163666666667,-0.837566666666667,0.499733333333333,-0.262433333333333,10.0657142857143,-19.92,25.3,46.658,0.74526,-0.62494,0.01156,-1.18942857142857,-1.329,-0.205714285714286,4.6865,0.50615,-0.849475,-0.262825,-0.7074,4.3414,2.561,450.943,1,1,1,1
24-May-2018 12:31:25,-1093.11111111111,0.932828571428572,-0.0241714285714286,0.272028571428571,1.82071428571429,-1.44442857142857,0.958285714285714,518.716,-0.8449,0.5635,-0.311166666666667,-1.91166666666667,36.4306666666667,11.3716666666667,60.523,0.744425,-0.627525,-0.0111625,-0.526666666666667,-1.35833333333333,-0.0695,4.657,0.513575,-0.841775,-0.26685,0.365833333333333,-0.243833333333333,-0.548833333333333,446.69975,1,1,1,1
24-May-2018 12:31:25,-1093.11111111111,0.932828571428572,-0.0241714285714286,0.272028571428571,1.82071428571429,-1.44442857142857,0.958285714285714,518.716,-0.8449,0.5635,-0.311166666666667,-1.91166666666667,36.4306666666667,11.3716666666667,60.523,0.744425,-0.627525,-0.0111625,-0.526666666666667,-1.35833333333333,-0.0695,4.657,0.513575,-0.841775,-0.26685,0.365833333333333,-0.243833333333333,-0.548833333333333,446.69975,1,1,1,1
24-May-2018 12:31:25,-1093.11111111111,0.932828571428572,-0.0241714285714286,0.272028571428571,1.82071428571429,-1.44442857142857,0.958285714285714,518.716,-0.8449,0.5635,-0.311166666666667,-1.91166666666667,36.4306666666667,11.3716666666667,60.523,0.744425,-0.627525,-0.0111625,-0.526666666666667,-1.35833333333333,-0.0695,4.657,0.513575,-0.841775,-0.26685,0.365833333333333,-0.243833333333333,-0.548833333333333,446.69975,1,1,1,1
24-May-2018 12:31:25,-1093.11111111111,0.932828571428572,-0.0241714285714286,0.272028571428571,1.82071428571429,-1.44442857142857,0.958285714285714,518.716,-0.8449,0.5635,-0.311166666666667,-1.91166666666667,36.4306666666667,11.3716666666667,60.523,0.744425,-0.627525,-0.0111625,-0.526666666666667,-1.35833333333333,-0.0695,4.657,0.513575,-0.841775,-0.26685,0.365833333333333,-0.243833333333333,-0.548833333333333,446.69975,1,1,1,1
24-May-2018 12:31:26,-778.375,0.932985714285714,-0.0253714285714286,0.269057142857143,0.617666666666667,0.218444444444444,0.115777777777778,518.716,-0.84376,0.54034,-0.28074,6.6005,-0.986200000000001,0.3079,60.523,0.743575,-0.62925,-0.01215,-0.223571428571429,-0.251714285714286,-0.233571428571429,4.633,0.51055,-0.847283333333333,-0.261066666666667,3.4605,0.35075,-1.26525,440.83,1,1,1,1
24-May-2018 12:31:26,-778.375,0.932985714285714,-0.0253714285714286,0.269057142857143,0.617666666666667,0.218444444444444,0.115777777777778,518.716,-0.84376,0.54034,-0.28074,6.6005,-0.986200000000001,0.3079,60.523,0.743575,-0.62925,-0.01215,-0.223571428571429,-0.251714285714286,-0.233571428571429,4.633,0.51055,-0.847283333333333,-0.261066666666667,3.4605,0.35075,-1.26525,440.83,1,1,1,1
24-May-2018 12:31:26,-778.375,0.932985714285714,-0.0253714285714286,0.269057142857143,0.617666666666667,0.218444444444444,0.115777777777778,518.716,-0.84376,0.54034,-0.28074,6.6005,-0.986200000000001,0.3079,60.523,0.743575,-0.62925,-0.01215,-0.223571428571429,-0.251714285714286,-0.233571428571429,4.633,0.51055,-0.847283333333333,-0.261066666666667,3.4605,0.35075,-1.26525,440.83,1,1,1,1
24-May-2018 12:31:26,-778.375,0.932985714285714,-0.0253714285714286,0.269057142857143,0.617666666666667,0.218444444444444,0.115777777777778,518.716,-0.84376,0.54034,-0.28074,6.6005,-0.986200000000001,0.3079,60.523,0.743575,-0.62925,-0.01215,-0.223571428571429,-0.251714285714286,-0.233571428571429,4.633,0.51055,-0.847283333333333,-0.261066666666667,3.4605,0.35075,-1.26525,440.83,1,1,1,1
24-May-2018 12:31:27,-543.4,0.929588888888889,-0.0214444444444444,0.2757,0.359,0.315571428571429,0.418714285714286,518.716,-0.830975,0.550825,-0.297575,0.587666666666667,-18.0544444444444,24.569,60.523,0.742766666666667,-0.630116666666667,0.00815,-0.668166666666667,-0.951166666666667,-0.283333333333333,4.689,0.5155,-0.82456,-0.25866,2.7686,1.6462,1.756,453.288333333333,1,1,1,1
24-May-2018 12:31:27,-543.4,0.929588888888889,-0.0214444444444444,0.2757,0.359,0.315571428571429,0.418714285714286,518.716,-0.830975,0.550825,-0.297575,0.587666666666667,-18.0544444444444,24.569,60.523,0.742766666666667,-0.630116666666667,0.00815,-0.668166666666667,-0.951166666666667,-0.283333333333333,4.689,0.5155,-0.82456,-0.25866,2.7686,1.6462,1.756,453.288333333333,1,1,1,1
24-May-2018 12:31:27,-543.4,0.929588888888889,-0.0214444444444444,0.2757,0.359,0.315571428571429,0.418714285714286,518.716,-0.830975,0.550825,-0.297575,0.587666666666667,-18.0544444444444,24.569,60.523,0.742766666666667,-0.630116666666667,0.00815,-0.668166666666667,-0.951166666666667,-0.283333333333333,4.689,0.5155,-0.82456,-0.25866,2.7686,1.6462,1.756,453.288333333333,1,1,1,1
24-May-2018 12:31:27,-543.4,0.929588888888889,-0.0214444444444444,0.2757,0.359,0.315571428571429,0.418714285714286,518.716,-0.830975,0.550825,-0.297575,0.587666666666667,-18.0544444444444,24.569,60.523,0.742766666666667,-0.630116666666667,0.00815,-0.668166666666667,-0.951166666666667,-0.283333333333333,4.689,0.5155,-0.82456,-0.25866,2.7686,1.6462,1.756,453.288333333333,1,1,1,1
24-May-2018 12:31:28,957.888888888889,0.933228571428572,-0.0249714285714286,0.273871428571429,1.13575,0.040375,0.571875,518.716,-0.773233333333333,0.6453,-0.261633333333333,-23.2833333333333,9.03933333333333,4.7255,67.798,0.74325,-0.628933333333333,-0.00195,-0.835,-1.6125,-0.195,4.616,0.513942857142857,-0.832814285714286,-0.291785714285714,0.4268,0.305,-1.0122,443.257,1,1,1,1
24-May-2018 12:31:28,957.888888888889,0.933228571428572,-0.0249714285714286,0.273871428571429,1.13575,0.040375,0.571875,518.716,-0.773233333333333,0.6453,-0.261633333333333,-23.2833333333333,9.03933333333333,4.7255,67.798,0.74325,-0.628933333333333,-0.00195,-0.835,-1.6125,-0.195,4.616,0.513942857142857,-0.832814285714286,-0.291785714285714,0.4268,0.305,-1.0122,443.257,1,1,1,1
24-May-2018 12:31:28,957.888888888889,0.933228571428572,-0.0249714285714286,0.273871428571429,1.13575,0.040375,0.571875,518.716,-0.773233333333333,0.6453,-0.261633333333333,-23.2833333333333,9.03933333333333,4.7255,67.798,0.74325,-0.628933333333333,-0.00195,-0.835,-1.6125,-0.195,4.616,0.513942857142857,-0.832814285714286,-0.291785714285714,0.4268,0.305,-1.0122,443.257,1,1,1,1
24-May-2018 12:31:28,957.888888888889,0.933228571428572,-0.0249714285714286,0.273871428571429,1.13575,0.040375,0.571875,518.716,-0.773233333333333,0.6453,-0.261633333333333,-23.2833333333333,9.03933333333333,4.7255,67.798,0.74325,-0.628933333333333,-0.00195,-0.835,-1.6125,-0.195,4.616,0.513942857142857,-0.832814285714286,-0.291785714285714,0.4268,0.305,-1.0122,443.257,1,1,1,1
24-May-2018 12:31:29,520.375,0.92965,-0.0245333333333333,0.277133333333333,0.0215,-0.160166666666667,0.0533333333333334,492.7896,-0.780225,0.624725,-0.283,29.2292857142857,-13.8022857142857,-5.51,67.798,0.745116666666667,-0.627583333333333,-0.004,0.0317499999999999,-0.6675,-0.3775,4.616,0.509533333333333,-0.8428,-0.297866666666667,0.683,1.9268,0.878,433.331,1,1,1,1
24-May-2018 12:31:29,520.375,0.92965,-0.0245333333333333,0.277133333333333,0.0215,-0.160166666666667,0.0533333333333334,492.7896,-0.780225,0.624725,-0.283,29.2292857142857,-13.8022857142857,-5.51,67.798,0.745116666666667,-0.627583333333333,-0.004,0.0317499999999999,-0.6675,-0.3775,4.616,0.509533333333333,-0.8428,-0.297866666666667,0.683,1.9268,0.878,433.331,1,1,1,1
24-May-2018 12:31:29,520.375,0.92965,-0.0245333333333333,0.277133333333333,0.0215,-0.160166666666667,0.0533333333333334,492.7896,-0.780225,0.624725,-0.283,29.2292857142857,-13.8022857142857,-5.51,67.798,0.745116666666667,-0.627583333333333,-0.004,0.0317499999999999,-0.6675,-0.3775,4.616,0.509533333333333,-0.8428,-0.297866666666667,0.683,1.9268,0.878,433.331,1,1,1,1
24-May-2018 12:31:29,520.375,0.92965,-0.0245333333333333,0.277133333333333,0.0215,-0.160166666666667,0.0533333333333334,492.7896,-0.780225,0.624725,-0.283,29.2292857142857,-13.8022857142857,-5.51,67.798,0.745116666666667,-0.627583333333333,-0.004,0.0317499999999999,-0.6675,-0.3775,4.616,0.509533333333333,-0.8428,-0.297866666666667,0.683,1.9268,0.878,433.331,1,1,1,1
24-May-2018 12:31:30,2047,0.93182,-0.02392,0.27766,0.549666666666667,-0.913333333333333,-0.0186666666666667,497.3145,-0.82688,0.56594,-0.28684,5.00055555555555,16.547,-0.747888888888888,67.798,0.7469625,-0.626575,0.011425,-0.0108,-0.1318,-0.386,4.673,0.5079,-0.8452,-0.283325,2.096,0.868875,0.952875,439.342,1,1,1,1
24-May-2018 12:31:30,2047,0.93182,-0.02392,0.27766,0.549666666666667,-0.913333333333333,-0.0186666666666667,497.3145,-0.82688,0.56594,-0.28684,5.00055555555555,16.547,-0.747888888888888,67.798,0.7469625,-0.626575,0.011425,-0.0108,-0.1318,-0.386,4.673,0.5079,-0.8452,-0.283325,2.096,0.868875,0.952875,439.342,1,1,1,1
24-May-2018 12:31:30,2047,0.93182,-0.02392,0.27766,0.549666666666667,-0.913333333333333,-0.0186666666666667,497.3145,-0.82688,0.56594,-0.28684,5.00055555555555,16.547,-0.747888888888888,67.798,0.7469625,-0.626575,0.011425,-0.0108,-0.1318,-0.386,4.673,0.5079,-0.8452,-0.283325,2.096,0.868875,0.952875,439.342,1,1,1,1
24-May-2018 12:31:30,2047,0.93182,-0.02392,0.27766,0.549666666666667,-0.913333333333333,-0.0186666666666667,497.3145,-0.82688,0.56594,-0.28684,5.00055555555555,16.547,-0.747888888888888,67.798,0.7469625,-0.626575,0.011425,-0.0108,-0.1318,-0.386,4.673,0.5079,-0.8452,-0.283325,2.096,0.868875,0.952875,439.342,1,1,1,1
24-May-2018 12:31:31,2001.25,0.93315,-0.0189833333333333,0.276466666666667,0.662333333333333,0.579666666666667,0.3665,499.081,-0.80388,0.59324,-0.27696,9.16925,-16.650375,3.25275,66.4383333333333,0.74584,-0.62812,0.01516,-0.2168,-1.154,-0.0838,4.648,0.502383333333333,-0.826233333333333,-0.295566666666667,-0.183,-2.0935,-1.23966666666667,434.3015,1,1,1,1
24-May-2018 12:31:31,2001.25,0.93315,-0.0189833333333333,0.276466666666667,0.662333333333333,0.579666666666667,0.3665,499.081,-0.80388,0.59324,-0.27696,9.16925,-16.650375,3.25275,66.4383333333333,0.74584,-0.62812,0.01516,-0.2168,-1.154,-0.0838,4.648,0.502383333333333,-0.826233333333333,-0.295566666666667,-0.183,-2.0935,-1.23966666666667,434.3015,1,1,1,1
24-May-2018 12:31:31,2001.25,0.93315,-0.0189833333333333,0.276466666666667,0.662333333333333,0.579666666666667,0.3665,499.081,-0.80388,0.59324,-0.27696,9.16925,-16.650375,3.25275,66.4383333333333,0.74584,-0.62812,0.01516,-0.2168,-1.154,-0.0838,4.648,0.502383333333333,-0.826233333333333,-0.295566666666667,-0.183,-2.0935,-1.23966666666667,434.3015,1,1,1,1
24-May-2018 12:31:31,2001.25,0.93315,-0.0189833333333333,0.276466666666667,0.662333333333333,0.579666666666667,0.3665,499.081,-0.80388,0.59324,-0.27696,9.16925,-16.650375,3.25275,66.4383333333333,0.74584,-0.62812,0.01516,-0.2168,-1.154,-0.0838,4.648,0.502383333333333,-0.826233333333333,-0.295566666666667,-0.183,-2.0935,-1.23966666666667,434.3015,1,1,1,1
24-May-2018 12:31:32,1614,0.932016666666667,-0.0209666666666667,0.279916666666667,-0.2536,-0.0106,0.0622,490.269333333333,-0.81965,0.55,-0.2882,2.34144444444444,-16.8478888888889,-3.25844444444444,63.719,0.74612,-0.62858,0.0158,-0.2054,-0.9724,-0.2392,4.59766666666667,0.49776,-0.8407,-0.30782,-0.1584,2.3536,1.427,429.187,1,1,1,1
24-May-2018 12:31:32,1614,0.932016666666667,-0.0209666666666667,0.279916666666667,-0.2536,-0.0106,0.0622,490.269333333333,-0.81965,0.55,-0.2882,2.34144444444444,-16.8478888888889,-3.25844444444444,63.719,0.74612,-0.62858,0.0158,-0.2054,-0.9724,-0.2392,4.59766666666667,0.49776,-0.8407,-0.30782,-0.1584,2.3536,1.427,429.187,1,1,1,1
24-May-2018 12:31:32,1614,0.932016666666667,-0.0209666666666667,0.279916666666667,-0.2536,-0.0106,0.0622,490.269333333333,-0.81965,0.55,-0.2882,2.34144444444444,-16.8478888888889,-3.25844444444444,63.719,0.74612,-0.62858,0.0158,-0.2054,-0.9724,-0.2392,4.59766666666667,0.49776,-0.8407,-0.30782,-0.1584,2.3536,1.427,429.187,1,1,1,1
24-May-2018 12:31:32,1614,0.932016666666667,-0.0209666666666667,0.279916666666667,-0.2536,-0.0106,0.0622,490.269333333333,-0.81965,0.55,-0.2882,2.34144444444444,-16.8478888888889,-3.25844444444444,63.719,0.74612,-0.62858,0.0158,-0.2054,-0.9724,-0.2392,4.59766666666667,0.49776,-0.8407,-0.30782,-0.1584,2.3536,1.427,429.187,1,1,1,1
24-May-2018 12:31:33,1196.1,0.93325,-0.0153666666666667,0.28125,1.1488,0.8918,0.5986,493.6385,-0.824,0.578733333333333,-0.28545,6.44277777777778,21.4756666666667,10.3972222222222,63.719,0.747933333333333,-0.625816666666667,0.0179833333333333,-0.755142857142857,-0.735857142857143,-0.127428571428571,4.5175,0.488375,-0.8483,-0.307475,-0.955333333333333,-1.02633333333333,-0.223666666666667,429.53475,1,1,1,1
24-May-2018 12:31:33,1196.1,0.93325,-0.0153666666666667,0.28125,1.1488,0.8918,0.5986,493.6385,-0.824,0.578733333333333,-0.28545,6.44277777777778,21.4756666666667,10.3972222222222,63.719,0.747933333333333,-0.625816666666667,0.0179833333333333,-0.755142857142857,-0.735857142857143,-0.127428571428571,4.5175,0.488375,-0.8483,-0.307475,-0.955333333333333,-1.02633333333333,-0.223666666666667,429.53475,1,1,1,1
24-May-2018 12:31:33,1196.1,0.93325,-0.0153666666666667,0.28125,1.1488,0.8918,0.5986,493.6385,-0.824,0.578733333333333,-0.28545,6.44277777777778,21.4756666666667,10.3972222222222,63.719,0.747933333333333,-0.625816666666667,0.0179833333333333,-0.755142857142857,-0.735857142857143,-0.127428571428571,4.5175,0.488375,-0.8483,-0.307475,-0.955333333333333,-1.02633333333333,-0.223666666666667,429.53475,1,1,1,1
24-May-2018 12:31:33,1196.1,0.93325,-0.0153666666666667,0.28125,1.1488,0.8918,0.5986,493.6385,-0.824,0.578733333333333,-0.28545,6.44277777777778,21.4756666666667,10.3972222222222,63.719,0.747933333333333,-0.625816666666667,0.0179833333333333,-0.755142857142857,-0.735857142857143,-0.127428571428571,4.5175,0.488375,-0.8483,-0.307475,-0.955333333333333,-1.02633333333333,-0.223666666666667,429.53475,1,1,1,1
24-May-2018 12:31:34,840.3,0.92682,-0.01648,0.2877,0.679571428571428,0.488142857142857,0.244571428571429,493.482,-0.8042,0.6102,-0.279725,-2.04516666666667,4.74533333333333,-8.963,56.783,0.74488,-0.62944,0.02682,-0.2105,-0.364,-0.15,4.5885,0.493425,-0.846075,-0.33155,-1.6565,0.508,-1.28033333333333,421.91,1,1,1,1
24-May-2018 12:31:34,840.3,0.92682,-0.01648,0.2877,0.679571428571428,0.488142857142857,0.244571428571429,493.482,-0.8042,0.6102,-0.279725,-2.04516666666667,4.74533333333333,-8.963,56.783,0.74488,-0.62944,0.02682,-0.2105,-0.364,-0.15,4.5885,0.493425,-0.846075,-0.33155,-1.6565,0.508,-1.28033333333333,421.91,1,1,1,1
24-May-2018 12:31:34,840.3,0.92682,-0.01648,0.2877,0.679571428571428,0.488142857142857,0.244571428571429,493.482,-0.8042,0.6102,-0.279725,-2.04516666666667,4.74533333333333,-8.963,56.783,0.74488,-0.62944,0.02682,-0.2105,-0.364,-0.15,4.5885,0.493425,-0.846075,-0.33155,-1.6565,0.508,-1.28033333333333,421.91,1,1,1,1
24-May-2018 12:31:34,840.3,0.92682,-0.01648,0.2877,0.679571428571428,0.488142857142857,0.244571428571429,493.482,-0.8042,0.6102,-0.279725,-2.04516666666667,4.74533333333333,-8.963,56.783,0.74488,-0.62944,0.02682,-0.2105,-0.364,-0.15,4.5885,0.493425,-0.846075,-0.33155,-1.6565,0.508,-1.28033333333333,421.91,1,1,1,1
24-May-2018 12:31:35,624.571428571429,0.9280125,-0.0159625,0.2861375,1.06342857142857,-0.537142857142857,0.732,492.984,-0.82012,0.55992,-0.28902,-6.713,-12.8816,-5.768,56.783,0.746471428571429,-0.628242857142857,0.0329142857142857,-0.575875,-1.277,-0.2775,4.635,0.493771428571429,-0.8502,-0.315942857142857,0.2318,-0.8536,-0.3292,426.218,1,1,1,1
24-May-2018 12:31:35,624.571428571429,0.9280125,-0.0159625,0.2861375,1.06342857142857,-0.537142857142857,0.732,492.984,-0.82012,0.55992,-0.28902,-6.713,-12.8816,-5.768,56.783,0.746471428571429,-0.628242857142857,0.0329142857142857,-0.575875,-1.277,-0.2775,4.635,0.493771428571429,-0.8502,-0.315942857142857,0.2318,-0.8536,-0.3292,426.218,1,1,1,1
24-May-2018 12:31:35,624.571428571429,0.9280125,-0.0159625,0.2861375,1.06342857142857,-0.537142857142857,0.732,492.984,-0.82012,0.55992,-0.28902,-6.713,-12.8816,-5.768,56.783,0.746471428571429,-0.628242857142857,0.0329142857142857,-0.575875,-1.277,-0.2775,4.635,0.493771428571429,-0.8502,-0.315942857142857,0.2318,-0.8536,-0.3292,426.218,1,1,1,1
24-May-2018 12:31:35,624.571428571429,0.9280125,-0.0159625,0.2861375,1.06342857142857,-0.537142857142857,0.732,492.984,-0.82012,0.55992,-0.28902,-6.713,-12.8816,-5.768,56.783,0.746471428571429,-0.628242857142857,0.0329142857142857,-0.575875,-1.277,-0.2775,4.635,0.493771428571429,-0.8502,-0.315942857142857,0.2318,-0.8536,-0.3292,426.218,1,1,1,1
24-May-2018 12:31:36,500.333333333333,0.930133333333333,-0.0189666666666667,0.287533333333333,0.214333333333333,1.07783333333333,0.1025,492.984,-0.81182,0.57074,-0.28514,7.02128571428571,16.5044285714286,7.073,55.73925,0.7479,-0.62745,0.017975,-1.254,-0.021,-0.192,4.63,0.48512,-0.83172,-0.31278,2.9758,-2.439,-2.1584,427.57,1,1,1,1
24-May-2018 12:31:36,500.333333333333,0.930133333333333,-0.0189666666666667,0.287533333333333,0.214333333333333,1.07783333333333,0.1025,492.984,-0.81182,0.57074,-0.28514,7.02128571428571,16.5044285714286,7.073,55.73925,0.7479,-0.62745,0.017975,-1.254,-0.021,-0.192,4.63,0.48512,-0.83172,-0.31278,2.9758,-2.439,-2.1584,427.57,1,1,1,1
24-May-2018 12:31:36,500.333333333333,0.930133333333333,-0.0189666666666667,0.287533333333333,0.214333333333333,1.07783333333333,0.1025,492.984,-0.81182,0.57074,-0.28514,7.02128571428571,16.5044285714286,7.073,55.73925,0.7479,-0.62745,0.017975,-1.254,-0.021,-0.192,4.63,0.48512,-0.83172,-0.31278,2.9758,-2.439,-2.1584,427.57,1,1,1,1
24-May-2018 12:31:36,500.333333333333,0.930133333333333,-0.0189666666666667,0.287533333333333,0.214333333333333,1.07783333333333,0.1025,492.984,-0.81182,0.57074,-0.28514,7.02128571428571,16.5044285714286,7.073,55.73925,0.7479,-0.62745,0.017975,-1.254,-0.021,-0.192,4.63,0.48512,-0.83172,-0.31278,2.9758,-2.439,-2.1584,427.57,1,1,1,1
24-May-2018 12:31:37,392.222222222222,0.929122222222222,-0.0196666666666667,0.286855555555556,1.723125,-0.851375,0.938125,492.984,-0.818466666666667,0.569116666666667,-0.2851,-2.61025,2.4385,-2.44325,52.608,0.7439,-0.62984,0.02526,0.417166666666667,-2.2725,-0.209333333333333,4.63,0.483683333333333,-0.844216666666667,-0.327633333333333,5.4268,1.061,-0.4388,420.288333333333,1,1,1,1
24-May-2018 12:31:37,392.222222222222,0.929122222222222,-0.0196666666666667,0.286855555555556,1.723125,-0.851375,0.938125,492.984,-0.818466666666667,0.569116666666667,-0.2851,-2.61025,2.4385,-2.44325,52.608,0.7439,-0.62984,0.02526,0.417166666666667,-2.2725,-0.209333333333333,4.63,0.483683333333333,-0.844216666666667,-0.327633333333333,5.4268,1.061,-0.4388,420.288333333333,1,1,1,1
24-May-2018 12:31:37,392.222222222222,0.929122222222222,-0.0196666666666667,0.286855555555556,1.723125,-0.851375,0.938125,492.984,-0.818466666666667,0.569116666666667,-0.2851,-2.61025,2.4385,-2.44325,52.608,0.7439,-0.62984,0.02526,0.417166666666667,-2.2725,-0.209333333333333,4.63,0.483683333333333,-0.844216666666667,-0.327633333333333,5.4268,1.061,-0.4388,420.288333333333,1,1,1,1
24-May-2018 12:31:37,392.222222222222,0.929122222222222,-0.0196666666666667,0.286855555555556,1.723125,-0.851375,0.938125,492.984,-0.818466666666667,0.569116666666667,-0.2851,-2.61025,2.4385,-2.44325,52.608,0.7439,-0.62984,0.02526,0.417166666666667,-2.2725,-0.209333333333333,0,0.483683333333333,-0.844216666666667,-0.327633333333333,5.4268,1.061,-0.4388,420.288333333333,1,1,1,1
24-May-2018 12:31:38,-629.111111111111,0.9298625,-0.0157875,0.2832625,-1.802125,-2.53275,-0.949625,492.984,-0.8086,0.591875,-0.271625,12.7267142857143,3.231,1.19928571428571,56.55225,0.74642,-0.62762,0.01942,-0.210833333333333,-1.08483333333333,-0.24,4.61933333333333,0.477933333333333,-0.840033333333333,-0.3063,-10.8128333333333,2.77433333333333,1.63616666666667,423.186,1,1,1,1
24-May-2018 12:31:38,-629.111111111111,0.9298625,-0.0157875,0.2832625,-1.802125,-2.53275,-0.949625,492.984,-0.8086,0.591875,-0.271625,12.7267142857143,3.231,1.19928571428571,56.55225,0.74642,-0.62762,0.01942,-0.210833333333333,-1.08483333333333,-0.24,4.61933333333333,0.477933333333333,-0.840033333333333,-0.3063,-10.8128333333333,2.77433333333333,1.63616666666667,423.186,1,1,1,1
24-May-2018 12:31:38,-629.111111111111,0.9298625,-0.0157875,0.2832625,-1.802125,-2.53275,-0.949625,492.984,-0.8086,0.591875,-0.271625,12.7267142857143,3.231,1.19928571428571,56.55225,0.74642,-0.62762,0.01942,-0.210833333333333,-1.08483333333333,-0.24,4.61933333333333,0.477933333333333,-0.840033333333333,-0.3063,-10.8128333333333,2.77433333333333,1.63616666666667,423.186,1,1,1,1
24-May-2018 12:31:38,-629.111111111111,0.9298625,-0.0157875,0.2832625,-1.802125,-2.53275,-0.949625,492.984,-0.8086,0.591875,-0.271625,12.7267142857143,3.231,1.19928571428571,56.55225,0.74642,-0.62762,0.01942,-0.210833333333333,-1.08483333333333,-0.24,4.61933333333333,0.477933333333333,-0.840033333333333,-0.3063,-10.8128333333333,2.77433333333333,1.63616666666667,423.186,1,1,1,1
24-May-2018 12:31:39,-2048,0.9513,-0.110057142857143,0.0747857142857143,24.6815,-15.5366666666667,6.34033333333333,335.149666666667,-0.818016666666667,0.571833333333333,-0.285333333333333,4.073,-5.36875,0.69675,57.867,0.69604,-0.69594,0.09094,22.1036666666667,-7.86383333333333,-1.14583333333333,4.5804,0.370525,-0.795,-0.39915,-3.689,-15.64025,39.34425,428.302,1,1,1,1
24-May-2018 12:31:39,-2048,0.9513,-0.110057142857143,0.0747857142857143,24.6815,-15.5366666666667,6.34033333333333,335.149666666667,-0.818016666666667,0.571833333333333,-0.285333333333333,4.073,-5.36875,0.69675,57.867,0.69604,-0.69594,0.09094,22.1036666666667,-7.86383333333333,-1.14583333333333,4.5804,0.370525,-0.795,-0.39915,-3.689,-15.64025,39.34425,428.302,1,1,1,1
24-May-2018 12:31:39,-2048,0.9513,-0.110057142857143,0.0747857142857143,24.6815,-15.5366666666667,6.34033333333333,335.149666666667,-0.818016666666667,0.571833333333333,-0.285333333333333,4.073,-5.36875,0.69675,57.867,0.69604,-0.69594,0.09094,22.1036666666667,-7.86383333333333,-1.14583333333333,4.5804,0.370525,-0.795,-0.39915,-3.689,-15.64025,39.34425,428.302,1,1,1,1
24-May-2018 12:31:39,-2048,0.9513,-0.110057142857143,0.0747857142857143,24.6815,-15.5366666666667,6.34033333333333,335.149666666667,-0.818016666666667,0.571833333333333,-0.285333333333333,4.073,-5.36875,0.69675,57.867,0.69604,-0.69594,0.09094,22.1036666666667,-7.86383333333333,-1.14583333333333,4.5804,0.370525,-0.795,-0.39915,-3.689,-15.64025,39.34425,428.302,1,1,1,1
24-May-2018 12:31:40,-2019.77777777778,0.9513,-0.110057142857143,0.0747857142857143,56.58,-23.4,-18.1,263.128,-0.8107,0.5911,-0.284,-21.85,-1.035,-0.639,57.867,0.6762,-0.6952,0.0774,47.83,-56.3,-11.82,4.5804,-0.2319,-1.041,-0.4199,-54.939,-81.128,33.7805,384.095,1,1,1,1
24-May-2018 12:31:40,-2019.77777777778,0.9513,-0.110057142857143,0.0747857142857143,56.58,-23.4,-18.1,263.128,-0.8107,0.5911,-0.284,-21.85,-1.035,-0.639,57.867,0.6762,-0.6952,0.0774,47.83,-56.3,-11.82,4.5804,-0.2319,-1.041,-0.4199,-54.939,-81.128,33.7805,384.095,1,1,1,1
24-May-2018 12:31:40,-2019.77777777778,0.9513,-0.110057142857143,0.0747857142857143,56.58,-23.4,-18.1,263.128,-0.8107,0.5911,-0.284,-21.85,-1.035,-0.639,57.867,0.6762,-0.6952,0.0774,47.83,-56.3,-11.82,4.5804,-0.2319,-1.041,-0.4199,-54.939,-81.128,33.7805,384.095,1,1,1,1
24-May-2018 12:31:40,-2019.77777777778,0,0,0,56.58,-23.4,-18.1,263.128,-0.8107,0.5911,-0.284,-21.85,-1.035,-0.639,57.867,0.6762,-0.6952,0.0774,47.83,-56.3,-11.82,0,-0.2319,-1.041,-0.4199,-54.939,-81.128,33.7805,384.095,1,1,1,1
24-May-2018 12:31:41,-1655,0.93182,0.06982,0.07058,73.092,10.6804,-7.2914,256.736333333333,-0.802566666666667,0.583833333333333,-0.293733333333333,-6.689125,-8.635,-1.566375,58.7743333333333,0.89134,-0.23938,0.29418,105.52,-29.798,14.884,3.7415,-0.4563,-0.77298,-0.29964,-22.6212,-57.511,21.512,459.252,1,1,1,1
24-May-2018 12:31:41,-1655,0.93182,0.06982,0.07058,73.092,10.6804,-7.2914,256.736333333333,-0.802566666666667,0.583833333333333,-0.293733333333333,-6.689125,-8.635,-1.566375,58.7743333333333,0.89134,-0.23938,0.29418,105.52,-29.798,14.884,3.7415,-0.4563,-0.77298,-0.29964,-22.6212,-57.511,21.512,459.252,1,1,1,1
24-May-2018 12:31:41,-1655,0.93182,0.06982,0.07058,73.092,10.6804,-7.2914,256.736333333333,-0.802566666666667,0.583833333333333,-0.293733333333333,-6.689125,-8.635,-1.566375,58.7743333333333,0.89134,-0.23938,0.29418,105.52,-29.798,14.884,3.7415,-0.4563,-0.77298,-0.29964,-22.6212,-57.511,21.512,459.252,1,1,1,1
24-May-2018 12:31:41,-1655,0.93182,0.06982,0.07058,73.092,10.6804,-7.2914,256.736333333333,-0.802566666666667,0.583833333333333,-0.293733333333333,-6.689125,-8.635,-1.566375,58.7743333333333,0.89134,-0.23938,0.29418,105.52,-29.798,14.884,3.7415,-0.4563,-0.77298,-0.29964,-22.6212,-57.511,21.512,459.252,1,1,1,1
24-May-2018 12:31:42,-1366.5,0.931125,-0.3170125,-0.12635,60.4618,-40.2916,9.282,206.35075,-0.81242,0.58568,-0.281,5.28444444444445,11.3951111111111,3.16388888888889,60.589,0.748375,-0.119275,0.555675,49.2325,17.085,6.585,3.7415,-0.787233333333333,-0.220266666666667,0.0166,-5.97533333333333,-38.8006666666667,44.9596666666667,640.772,1,1,1,1
24-May-2018 12:31:42,-1366.5,0.931125,-0.3170125,-0.12635,60.4618,-40.2916,9.282,206.35075,-0.81242,0.58568,-0.281,5.28444444444445,11.3951111111111,3.16388888888889,60.589,0.748375,-0.119275,0.555675,49.2325,17.085,6.585,3.7415,-0.787233333333333,-0.220266666666667,0.0166,-5.97533333333333,-38.8006666666667,44.9596666666667,640.772,1,1,1,1
24-May-2018 12:31:42,-1366.5,0.931125,-0.3170125,-0.12635,60.4618,-40.2916,9.282,206.35075,-0.81242,0.58568,-0.281,5.28444444444445,11.3951111111111,3.16388888888889,60.589,0.748375,-0.119275,0.555675,49.2325,17.085,6.585,3.7415,-0.787233333333333,-0.220266666666667,0.0166,-5.97533333333333,-38.8006666666667,44.9596666666667,640.772,1,1,1,1
24-May-2018 12:31:42,-1366.5,0.931125,-0.3170125,-0.12635,60.4618,-40.2916,9.282,206.35075,-0.81242,0.58568,-0.281,5.28444444444445,11.3951111111111,3.16388888888889,60.589,0.748375,-0.119275,0.555675,49.2325,17.085,6.585,0,-0.787233333333333,-0.220266666666667,0.0166,-5.97533333333333,-38.8006666666667,44.9596666666667,640.772,1,1,1,1
24-May-2018 12:31:43,-1106.14285714286,0.962716666666667,-0.0561833333333334,0.67825,2.76457142857143,17.2728571428571,-23.6058571428571,9.794,-0.804975,0.59775,-0.279625,1.55966666666667,0.543,-2.57155555555556,60.589,-0.207466666666667,0.61505,0.856683333333333,19.2014285714286,21.6485714285714,-11.8185714285714,4.343,-1.02002857142857,-0.108042857142857,0.194071428571429,-36.5112,-13.4998,-8.4868,664.893333333333,0,0,1,1
24-May-2018 12:31:43,-1106.14285714286,0.962716666666667,-0.0561833333333334,0.67825,2.76457142857143,17.2728571428571,-23.6058571428571,9.794,-0.804975,0.59775,-0.279625,1.55966666666667,0.543,-2.57155555555556,60.589,-0.207466666666667,0.61505,0.856683333333333,19.2014285714286,21.6485714285714,-11.8185714285714,4.343,-1.02002857142857,-0.108042857142857,0.194071428571429,-36.5112,-13.4998,-8.4868,664.893333333333,0,0,1,1
24-May-2018 12:31:43,-1106.14285714286,0.962716666666667,-0.0561833333333334,0.67825,2.76457142857143,17.2728571428571,-23.6058571428571,9.794,-0.804975,0.59775,-0.279625,1.55966666666667,0.543,-2.57155555555556,60.589,-0.207466666666667,0.61505,0.856683333333333,19.2014285714286,21.6485714285714,-11.8185714285714,4.343,-1.02002857142857,-0.108042857142857,0.194071428571429,-36.5112,-13.4998,-8.4868,664.893333333333,0,0,1,1
24-May-2018 12:31:43,-1106.14285714286,0.962716666666667,-0.0561833333333334,0.67825,2.76457142857143,17.2728571428571,-23.6058571428571,9.794,-0.804975,0.59775,-0.279625,1.55966666666667,0.543,-2.57155555555556,60.589,-0.207466666666667,0.61505,0.856683333333333,19.2014285714286,21.6485714285714,-11.8185714285714,4.343,-1.02002857142857,-0.108042857142857,0.194071428571429,-36.5112,-13.4998,-8.4868,664.893333333333,0,0,1,1
24-May-2018 12:31:44,-873,0.719628571428571,0.0383714285714286,0.682585714285714,-8.72666666666667,6.67683333333333,-5.46333333333333,65.5655,-0.81396,0.5723,-0.28598,-6.13333333333333,-9.62633333333333,-2.18477777777778,60.862,-0.3089,0.515233333333333,0.8704,-3.69766666666667,5.2135,7.53966666666667,2.504,-0.88066,-0.44772,0.26404,-19.4605,12.0428333333333,28.7296666666667,713.147,0,0,1,1
24-May-2018 12:31:44,-873,0.719628571428571,0.0383714285714286,0.682585714285714,-8.72666666666667,6.67683333333333,-5.46333333333333,65.5655,-0.81396,0.5723,-0.28598,-6.13333333333333,-9.62633333333333,-2.18477777777778,60.862,-0.3089,0.515233333333333,0.8704,-3.69766666666667,5.2135,7.53966666666667,2.504,-0.88066,-0.44772,0.26404,-19.4605,12.0428333333333,28.7296666666667,713.147,0,0,1,1
24-May-2018 12:31:44,-873,0.719628571428571,0.0383714285714286,0.682585714285714,-8.72666666666667,6.67683333333333,-5.46333333333333,65.5655,-0.81396,0.5723,-0.28598,-6.13333333333333,-9.62633333333333,-2.18477777777778,60.862,-0.3089,0.515233333333333,0.8704,-3.69766666666667,5.2135,7.53966666666667,2.504,-0.88066,-0.44772,0.26404,-19.4605,12.0428333333333,28.7296666666667,713.147,0,0,1,1
24-May-2018 12:31:44,-873,0.719628571428571,0.0383714285714286,0.682585714285714,-8.72666666666667,6.67683333333333,-5.46333333333333,65.5655,-0.81396,0.5723,-0.28598,-6.13333333333333,-9.62633333333333,-2.18477777777778,60.862,-0.3089,0.515233333333333,0.8704,-3.69766666666667,5.2135,7.53966666666667,2.504,-0.88066,-0.44772,0.26404,-19.4605,12.0428333333333,28.7296666666667,713.147,0,0,1,1
24-May-2018 12:31:45,-702,0.616957142857143,0.0818,0.748028571428571,-13.044,-7.6746,-1.2108,322.9835,-0.8107,0.58542,-0.2821,9.937,4.86444444444444,5.39977777777778,61.408,-0.29635,0.559133333333333,0.856883333333333,-12.8934,-17.8724,-6.6948,2.642,-0.939366666666667,0.0744833333333333,0.08785,0.162666666666667,9.43116666666667,15.8841666666667,690.604666666667,1,1,1,0
24-May-2018 12:31:45,-702,0.616957142857143,0.0818,0.748028571428571,-13.044,-7.6746,-1.2108,322.9835,-0.8107,0.58542,-0.2821,9.937,4.86444444444444,5.39977777777778,61.408,-0.29635,0.559133333333333,0.856883333333333,-12.8934,-17.8724,-6.6948,2.642,-0.939366666666667,0.0744833333333333,0.08785,0.162666666666667,9.43116666666667,15.8841666666667,690.604666666667,1,1,1,0
24-May-2018 12:31:45,-702,0.616957142857143,0.0818,0.748028571428571,-13.044,-7.6746,-1.2108,322.9835,-0.8107,0.58542,-0.2821,9.937,4.86444444444444,5.39977777777778,61.408,-0.29635,0.559133333333333,0.856883333333333,-12.8934,-17.8724,-6.6948,2.642,-0.939366666666667,0.0744833333333333,0.08785,0.162666666666667,9.43116666666667,15.8841666666667,690.604666666667,1,1,1,0
24-May-2018 12:31:45,-702,0.616957142857143,0.0818,0.748028571428571,-13.044,-7.6746,-1.2108,322.9835,-0.8107,0.58542,-0.2821,9.937,4.86444444444444,5.39977777777778,61.408,-0.29635,0.559133333333333,0.856883333333333,-12.8934,-17.8724,-6.6948,2.642,-0.939366666666667,0.0744833333333333,0.08785,0.162666666666667,9.43116666666667,15.8841666666667,690.604666666667,1,1,1,0
24-May-2018 12:31:46,597.888888888889,0.681275,0.0806,0.7103625,9.40955555555556,-0.424333333333333,-1.15488888888889,322.9835,-0.814,0.584575,-0.284475,1.198875,6.349,-1.460625,61.408,-0.200328571428571,0.368457142857143,0.989028571428571,4.22833333333333,3.20116666666667,5.03033333333333,2.903,-0.918988888888889,-0.0567222222222222,0.0651555555555556,5.305,-3.98071428571429,-18.2404285714286,522.688,1,1,1,1
24-May-2018 12:31:46,597.888888888889,0.681275,0.0806,0.7103625,9.40955555555556,-0.424333333333333,-1.15488888888889,322.9835,-0.814,0.584575,-0.284475,1.198875,6.349,-1.460625,61.408,-0.200328571428571,0.368457142857143,0.989028571428571,4.22833333333333,3.20116666666667,5.03033333333333,2.903,-0.918988888888889,-0.0567222222222222,0.0651555555555556,5.305,-3.98071428571429,-18.2404285714286,522.688,1,1,1,1
24-May-2018 12:31:46,597.888888888889,0.681275,0.0806,0.7103625,9.40955555555556,-0.424333333333333,-1.15488888888889,322.9835,-0.814,0.584575,-0.284475,1.198875,6.349,-1.460625,61.408,-0.200328571428571,0.368457142857143,0.989028571428571,4.22833333333333,3.20116666666667,5.03033333333333,2.903,-0.918988888888889,-0.0567222222222222,0.0651555555555556,5.305,-3.98071428571429,-18.2404285714286,522.688,1,1,1,1
24-May-2018 12:31:46,597.888888888889,0.681275,0.0806,0.7103625,9.40955555555556,-0.424333333333333,-1.15488888888889,322.9835,-0.814,0.584575,-0.284475,1.198875,6.349,-1.460625,61.408,-0.200328571428571,0.368457142857143,0.989028571428571,4.22833333333333,3.20116666666667,5.03033333333333,2.903,-0.918988888888889,-0.0567222222222222,0.0651555555555556,5.305,-3.98071428571429,-18.2404285714286,522.688,1,1,1,1
24-May-2018 12:31:47,2047,0.7129,0.124022222222222,0.693711111111111,0.232444444444444,0.231888888888889,0.3,322.9835,-0.815475,0.58305,-0.2832,0.2649,-10.9949,0.4833,61.5455,-0.192166666666667,0.429366666666667,0.971233333333334,0.2175,-0.545,1.372,3.11,-0.92282,-0.2427,0.09,-0.193,4.08533333333333,-1.15833333333333,565.4028,1,1,1,1
24-May-2018 12:31:47,2047,0.7129,0.124022222222222,0.693711111111111,0.232444444444444,0.231888888888889,0.3,322.9835,-0.815475,0.58305,-0.2832,0.2649,-10.9949,0.4833,61.5455,-0.192166666666667,0.429366666666667,0.971233333333334,0.2175,-0.545,1.372,3.11,-0.92282,-0.2427,0.09,-0.193,4.08533333333333,-1.15833333333333,565.4028,1,1,1,1
24-May-2018 12:31:47,2047,0.7129,0.124022222222222,0.693711111111111,0.232444444444444,0.231888888888889,0.3,322.9835,-0.815475,0.58305,-0.2832,0.2649,-10.9949,0.4833,61.5455,-0.192166666666667,0.429366666666667,0.971233333333334,0.2175,-0.545,1.372,3.11,-0.92282,-0.2427,0.09,-0.193,4.08533333333333,-1.15833333333333,565.4028,1,1,1,1
24-May-2018 12:31:47,2047,0.7129,0.124022222222222,0.693711111111111,0.232444444444444,0.231888888888889,0.3,322.9835,-0.815475,0.58305,-0.2832,0.2649,-10.9949,0.4833,61.5455,-0.192166666666667,0.429366666666667,0.971233333333334,0.2175,-0.545,1.372,3.11,-0.92282,-0.2427,0.09,-0.193,4.08533333333333,-1.15833333333333,565.4028,1,1,1,1
24-May-2018 12:31:48,749.5,0.7184125,0.10635,0.690625,0.168375,-0.2195,0.90725,322.9835,-0.8076,0.58008,-0.28392,13.2294444444444,-0.476666666666667,1.25466666666667,61.683,-0.2012,0.43392,0.96994,-0.00637500000000004,-0.50725,-0.92675,3.093,-0.920816666666667,-0.24575,0.06425,0.4575,1.13816666666667,1.95133333333333,543.8965,1,1,1,1
24-May-2018 12:31:48,749.5,0.7184125,0.10635,0.690625,0.168375,-0.2195,0.90725,322.9835,-0.8076,0.58008,-0.28392,13.2294444444444,-0.476666666666667,1.25466666666667,61.683,-0.2012,0.43392,0.96994,-0.00637500000000004,-0.50725,-0.92675,3.093,-0.920816666666667,-0.24575,0.06425,0.4575,1.13816666666667,1.95133333333333,543.8965,1,1,1,1
24-May-2018 12:31:48,749.5,0.7184125,0.10635,0.690625,0.168375,-0.2195,0.90725,322.9835,-0.8076,0.58008,-0.28392,13.2294444444444,-0.476666666666667,1.25466666666667,61.683,-0.2012,0.43392,0.96994,-0.00637500000000004,-0.50725,-0.92675,3.093,-0.920816666666667,-0.24575,0.06425,0.4575,1.13816666666667,1.95133333333333,543.8965,1,1,1,1
24-May-2018 12:31:48,749.5,0.7184125,0.10635,0.690625,0.168375,-0.2195,0.90725,322.9835,-0.8076,0.58008,-0.28392,13.2294444444444,-0.476666666666667,1.25466666666667,61.683,-0.2012,0.43392,0.96994,-0.00637500000000004,-0.50725,-0.92675,3.093,-0.920816666666667,-0.24575,0.06425,0.4575,1.13816666666667,1.95133333333333,543.8965,1,1,1,1
24-May-2018 12:31:49,2020.625,0.7051625,0.09615,0.7042875,0.194333333333333,0.336666666666667,0.224,269.898,-0.82182,0.566,-0.2865,1.33666666666667,8.35222222222222,-6.52733333333333,61.683,-0.20925,0.4458,0.96545,-1.322,-1.0625,0.44325,3.057,-0.92732,-0.23048,0.05634,0.409571428571429,0.958285714285714,0.0784285714285714,541.675333333333,1,1,1,1
24-May-2018 12:31:49,2020.625,0.7051625,0.09615,0.7042875,0.194333333333333,0.336666666666667,0.224,269.898,-0.82182,0.566,-0.2865,1.33666666666667,8.35222222222222,-6.52733333333333,61.683,-0.20925,0.4458,0.96545,-1.322,-1.0625,0.44325,3.057,-0.92732,-0.23048,0.05634,0.409571428571429,0.958285714285714,0.0784285714285714,541.675333333333,1,1,1,1
24-May-2018 12:31:49,2020.625,0.7051625,0.09615,0.7042875,0.194333333333333,0.336666666666667,0.224,269.898,-0.82182,0.566,-0.2865,1.33666666666667,8.35222222222222,-6.52733333333333,61.683,-0.20925,0.4458,0.96545,-1.322,-1.0625,0.44325,3.057,-0.92732,-0.23048,0.05634,0.409571428571429,0.958285714285714,0.0784285714285714,541.675333333333,1,1,1,1
24-May-2018 12:31:49,2020.625,0.7051625,0.09615,0.7042875,0.194333333333333,0.336666666666667,0.224,269.898,-0.82182,0.566,-0.2865,1.33666666666667,8.35222222222222,-6.52733333333333,61.683,-0.20925,0.4458,0.96545,-1.322,-1.0625,0.44325,3.057,-0.92732,-0.23048,0.05634,0.409571428571429,0.958285714285714,0.0784285714285714,541.675333333333,1,1,1,1
